#time,accel_x,accel_y,accel_z
22100.156465,7920.203579,-9474.636058,2374.896044
22100.156799,9104.533087,-8142.265362,3140.991542
22100.157133,10362.883188,-9474.636058,4596.572988
22100.157467,11103.089130,-8660.409521,4366.744339
22100.157800,9474.636058,-7772.162391,3064.381992
22100.158134,11769.274478,-8882.471304,-76.609550
22100.158468,9474.636058,-10436.903782,1762.019645
22100.158802,8216.285956,-10066.800811,-3140.991542
22100.159135,6661.853478,-7846.182985,-4136.915689
22100.159469,6513.812290,-9548.656652,-2451.505594
22100.159803,7402.059420,-10140.821405,-1302.362347
22100.160136,8586.388927,-10362.883188,689.485948
22100.160470,8586.388927,-10658.965565,3140.991542
22100.160804,7031.956449,-13027.624579,4213.525239
22100.161138,4071.132681,-8660.409521,1225.752797
22100.161471,7031.956449,-10362.883188,4826.401637
22100.161805,7031.956449,-6513.812290,2681.334243
22100.162139,7105.977043,-6587.832884,5592.497135
22100.162473,6143.709319,-7550.100608,2987.772442
22100.162806,5477.523971,-6809.894666,229.828649
22100.163140,5921.647536,-6587.832884,-995.924147
22100.163474,6809.894666,-7772.162391,-2298.286494
22100.163808,7031.956449,-8660.409521,-4136.915689
22100.164141,7105.977043,-10732.986159,-76.609550
22100.164475,11769.274478,-10658.965565,-1915.238745
22100.164809,9474.636058,-11029.068536,-2221.676944
22100.165142,10658.965565,-13397.727550,2834.553343
22100.165476,11177.109724,-13027.624579,2068.457845
22100.165810,8586.388927,-10510.924376,2834.553343
22100.166144,9992.780217,-8290.306550,3447.429741
22100.166477,10732.986159,-6809.894666,4366.744339
22100.166811,11695.253884,-5995.668130,4826.401637
22100.167145,10066.800811,-6439.791695,4213.525239
22100.167479,9252.574275,-7698.141797,689.485948
22100.167812,6291.750507,-10140.821405,-1991.848295
22100.168146,5181.441594,-11843.295072,-2528.115143
22100.168480,4367.215058,-11251.130318,-3140.991542
22100.168814,3552.988522,-9844.739029,-1225.752797
22100.169147,9400.615463,-10881.027347,3600.648841
22100.169481,10288.862594,-7402.059420,1532.190996
22100.169815,11547.212695,-6587.832884,5056.230287
22100.170148,11769.274478,-7994.224174,2068.457845
22100.170482,8512.368333,-8734.430116,-842.705048
22100.170816,7994.224174,-7994.224174,-1991.848295
22100.171150,8882.471304,-8142.265362,-2757.943793
22100.171483,7105.977043,-8364.327145,-4290.134789
22100.171817,4737.318029,-10140.821405,-2145.067394
22100.172151,8808.450710,-13323.706956,-76.609550
22100.172485,11769.274478,-10066.800811,2068.457845
22100.172818,12139.377449,-8956.491898,6741.640382
22100.173152,16506.592507,-6809.894666,5439.278036
22100.173486,17246.798449,-5921.647536,6358.592633
22100.173820,16358.551318,-5921.647536,3983.696590
22100.174153,14211.954086,-6735.874072,0.000000
22100.174487,9474.636058,-11991.336260,-3370.820191
22100.174821,5921.647536,-12213.398043,-3753.867940
22100.175154,1998.556043,-12583.501014,-9193.145976
22100.175488,2664.741391,-10140.821405,-9806.022374
22100.175822,6217.729913,-9548.656652,-2145.067394
22100.176156,10658.965565,-5403.503377,4290.134789
22100.176489,16506.592507,-6513.812290,9499.584175
22100.176823,15396.283594,-6661.853478,10265.679673
22100.177157,15174.221811,-7105.977043,6741.640382
22100.177491,15914.427753,-9474.636058,6052.154434
22100.177824,16358.551318,-7105.977043,2987.772442
22100.178158,13841.851115,-7254.018232,-3064.381992
22100.178492,10066.800811,-10732.986159,-3907.087040
22100.178826,8216.285956,-13027.624579,-7431.126331
22100.179159,5847.626942,-14211.954086,-5286.058936
22100.179493,5329.482782,-10436.903782,-3830.477490
22100.179827,7328.038826,-10658.965565,-1455.581446
22100.180160,10510.924376,-9474.636058,3907.087040
22100.180494,13619.789333,-4219.173869,6741.640382
22100.180828,16506.592507,-5625.565159,7584.345430
22100.181162,13619.789333,-7476.080014,7354.516781
22100.181495,11843.295072,-8364.327145,5439.278036
22100.181829,12953.603985,-4737.318029,-76.609550
22100.182163,12953.603985,-7476.080014,-76.609550
22100.182497,7698.141797,-8956.491898,-5362.668486
22100.182830,3849.070898,-11917.315666,-8120.612279
22100.183164,3775.050304,-13249.686362,-6358.592633
22100.183498,5033.400406,-10732.986159,-3677.258390
22100.183832,8438.347739,-9030.512492,-536.266849
22100.184165,9992.780217,-10658.965565,1915.238745
22100.184499,10362.883188,-8290.306550,4290.134789
22100.184833,13101.645173,-9252.574275,8120.612279
22100.185166,14211.954086,-4145.153275,7277.907231
22100.185500,17690.922014,-10658.965565,7277.907231
22100.185834,11177.109724,-7920.203579,2451.505594
22100.186168,5477.523971,-8364.327145,-4596.572988
22100.186501,5033.400406,-13323.706956,-6281.983084
22100.186835,4145.153275,-10436.903782,-6128.763984
22100.187169,8512.368333,-8808.450710,-2757.943793
22100.187503,7994.224174,-7772.162391,0.000000
22100.187836,8438.347739,-8216.285956,-1302.362347
22100.188170,6513.812290,-12509.480420,0.000000
22100.188504,14137.933492,-7402.059420,3294.210641
22100.188838,13545.768739,-7550.100608,3064.381992
22100.189171,11843.295072,-8956.491898,5439.278036
22100.189505,11769.274478,-9474.636058,2374.896044
22100.189839,8438.347739,-11473.192101,4213.525239
22100.190172,11103.089130,-7476.080014,536.266849
22100.190506,8364.327145,-9326.594869,-2757.943793
22100.190840,4885.359217,-11399.171507,-1378.971896
22100.191174,6143.709319,-7698.141797,-689.485948
22100.191507,3478.967927,-11917.315666,-3677.258390
22100.191841,4145.153275,-4811.338623,0.000000
22100.192175,7031.956449,-9474.636058,-689.485948
22100.192509,4293.194464,-7772.162391,0.000000
22100.192842,9400.615463,-8586.388927,3447.429741
22100.193176,3552.988522,-10214.842000,842.705048
22100.193510,7402.059420,-10436.903782,4903.011187
22100.193844,4293.194464,-9178.553681,2681.334243
22100.194177,5255.462188,-9474.636058,-1302.362347
22100.194511,3108.864956,-4811.338623,0.000000
22100.194845,2812.782580,-10066.800811,-3447.429741
22100.195179,7031.956449,-14211.954086,2068.457845
22100.195512,0.000000,-7179.997637,-2451.505594
22100.195846,3478.967927,-13027.624579,-3753.867940
22100.196180,2590.720797,-7254.018232,-766.095498
22100.196513,4959.379811,-11325.150913,2145.067394
22100.196847,8142.265362,-6069.688724,4903.011187
22100.197181,6439.791695,-9178.553681,4826.401637
22100.197515,4737.318029,-7476.080014,1762.019645
22100.197848,6587.832884,-8364.327145,4366.744339
22100.198182,6957.935855,-8734.430116,2298.286494
22100.198516,4145.153275,-9844.739029,0.000000
22100.198850,814.226536,-8734.430116,-3753.867940
22100.199183,-3034.844362,-10732.986159,-5515.887586
22100.199517,-2368.659014,-6587.832884,-4290.134789
22100.199851,4071.132681,-9474.636058,-2834.553343
22100.200185,-1184.329507,-10140.821405,-2757.943793
22100.200518,4515.256246,-8290.306550,-76.609550
22100.200852,3552.988522,-10140.821405,2834.553343
22100.201186,5477.523971,-7476.080014,4903.011187
22100.201519,9400.615463,-8882.471304,6665.030833
22100.201853,7994.224174,-11251.130318,8503.660028
22100.202187,4293.194464,-6291.750507,4903.011187
22100.202521,3256.906145,-9696.697840,2911.162892
22100.202854,2294.638420,-10066.800811,-3294.210641
22100.203188,666.185348,-10140.821405,-1838.629195
22100.203522,-3923.091493,-11843.295072,-5592.497135
22100.203856,-592.164754,-9104.533087,-2911.162892
22100.204189,-2664.741391,-9474.636058,-3677.258390
22100.204523,2368.659014,-5551.544565,-1225.752797
22100.204857,7624.121203,-9474.636058,3600.648841
22100.205191,74.020594,-10140.821405,4903.011187
22100.205524,5033.400406,-8512.368333,6052.154434
22100.205858,222.061783,-10658.965565,2374.896044
22100.206192,5107.421000,-5033.400406,1838.629195
22100.206525,888.247130,-9548.656652,1455.581446
22100.206859,222.061783,-6587.832884,-995.924147
22100.207193,444.123565,-7550.100608,-2604.724693
22100.207527,-4145.153275,-11917.315666,-2451.505594
22100.207860,3478.967927,-6365.771101,-4903.011187
22100.208194,-3849.070898,-17394.839637,0.000000
22100.208528,3775.050304,-9474.636058,-76.609550
22100.208862,-2368.659014,-8364.327145,-1225.752797
22100.209195,1184.329507,-9548.656652,2757.943793
22100.209529,3923.091493,-5329.482782,3983.696590
22100.209863,-666.185348,-13693.809927,5439.278036
22100.210197,3478.967927,-5033.400406,4519.963438
22100.210530,-2442.679609,-9474.636058,1149.143247
22100.210864,-3701.029710,-6291.750507,-2451.505594
22100.211198,-1258.350101,-9474.636058,-76.609550
22100.211531,-2442.679609,-9474.636058,-5286.058936
22100.211865,-6661.853478,-12213.398043,-4290.134789
22100.212199,-3849.070898,-7179.997637,153.219100
22100.212533,-1332.370696,-6883.915261,1762.019645
22100.212866,-1258.350101,-9326.594869,-383.047749
22100.213200,888.247130,-8290.306550,919.314598
22100.213534,-74.020594,-11843.295072,2068.457845
22100.213868,3108.864956,-8364.327145,5286.058936
22100.214201,1776.494261,-8660.409521,3524.039291
22100.214535,3108.864956,-8068.244768,1762.019645
22100.214869,-1702.473667,-10362.883188,459.657299
22100.215203,1110.308913,-9474.636058,-689.485948
22100.215536,518.144159,-8512.368333,-3064.381992
22100.215870,-4737.318029,-8364.327145,1225.752797
22100.216204,-666.185348,-9474.636058,-2834.553343
22100.216537,-888.247130,-8956.491898,1225.752797
22100.216871,1924.535449,-11621.233289,3294.210641
22100.217205,2738.761985,-7698.141797,2757.943793
22100.217539,4811.338623,-8364.327145,2298.286494
22100.217872,4145.153275,-10140.821405,1685.410096
22100.218206,2886.803174,-11251.130318,2987.772442
22100.218540,814.226536,-5403.503377,0.000000
22100.218874,2294.638420,-12435.459826,-76.609550
22100.219207,-74.020594,-7698.141797,-4366.744339
22100.219541,-1924.535449,-9548.656652,-1532.190996
22100.219875,-1258.350101,-9474.636058,-1915.238745
22100.220209,-1628.453072,-9030.512492,-1838.629195
22100.220542,-3478.967927,-11103.089130,612.876398
22100.220876,2442.679609,-7105.977043,4443.353888
22100.221210,1184.329507,-6291.750507,2451.505594
22100.221543,518.144159,-3627.009116,2451.505594
22100.221877,3330.926739,-11251.130318,1762.019645
22100.222211,-222.061783,-9474.636058,1149.143247
22100.222545,0.000000,-8364.327145,-919.314598
22100.222878,1406.391290,-9252.574275,0.000000
22100.223212,370.102971,-9992.780217,-766.095498
22100.223546,222.061783,-8142.265362,-1608.800546
22100.223880,-1850.514855,-11399.171507,-2604.724693
22100.224213,-2368.659014,-10288.862594,-2298.286494
22100.224547,-1480.411884,-13619.789333,-76.609550
22100.224881,2294.638420,-7105.977043,1302.362347
22100.225215,1480.411884,-9548.656652,3370.820191
22100.225548,2294.638420,-12435.459826,4826.401637
22100.225882,5551.544565,-3330.926739,4903.011187
22100.226216,1554.432478,-8586.388927,3983.696590
22100.226549,5477.523971,-3256.906145,2221.676944
22100.226883,-6143.709319,-10955.047942,-4749.792088
22100.227216,-148.041188,-9400.615463,-4290.134789
22100.227549,-4589.276840,-13323.706956,-4826.401637
22100.227883,-444.123565,-9622.677246,-4213.525239
22100.228216,-1258.350101,-11843.295072,-1149.143247
22100.228549,-2812.782580,-12435.459826,-995.924147
22100.228883,0.000000,-6587.832884,0.000000
22100.229216,0.000000,-11843.295072,6971.469032
22100.229549,4663.297435,-7105.977043,5132.839837
22100.229883,592.164754,-4219.173869,7354.516781
22100.230216,222.061783,-6661.853478,2298.286494
22100.230549,2294.638420,-6809.894666,-76.609550
22100.230883,-74.020594,-9918.759623,-1225.752797
22100.231216,1924.535449,-8216.285956,-2681.334243
22100.231549,-2664.741391,-14804.118840,229.828649
22100.231883,0.000000,-5403.503377,-6435.202183
22100.232216,-2442.679609,-16580.613101,-3140.991542
22100.232549,-3256.906145,-7179.997637,-4903.011187
22100.232883,148.041188,-12657.521608,2451.505594
22100.233216,1998.556043,-9474.636058,4826.401637
22100.233549,1258.350101,-8364.327145,6128.763984
22100.233883,-148.041188,-7179.997637,4136.915689
22100.234216,3182.885551,-6661.853478,4136.915689
22100.234549,2886.803174,-4737.318029,2451.505594
22100.234883,296.082377,-8512.368333,-2451.505594
22100.235216,814.226536,-9548.656652,-2451.505594
22100.235549,-6809.894666,-6587.832884,-4903.011187
22100.235883,296.082377,-13915.871710,-4979.620737
22100.236216,-962.267725,-9474.636058,-3753.867940
22100.236549,2960.823768,-13471.748144,842.705048
22100.236883,2590.720797,-10881.027347,4290.134789
22100.237216,1998.556043,-9622.677246,3677.258390
22100.237549,-592.164754,-10288.862594,1838.629195
22100.237883,5847.626942,-9474.636058,7277.907231
22100.238216,1924.535449,-4811.338623,1532.190996
22100.238549,2294.638420,-9474.636058,4519.963438
22100.238883,-1258.350101,-4737.318029,-3064.381992
22100.239216,-7105.977043,-7179.997637,-4903.011187
22100.239549,-4219.173869,-9326.594869,-5592.497135
22100.239883,-74.020594,-9326.594869,-4979.620737
22100.240216,-1480.411884,-11547.212695,-612.876398
22100.240549,2294.638420,-7402.059420,1762.019645
22100.240883,1036.288319,-10732.986159,229.828649
22100.241216,296.082377,-7772.162391,5209.449386
22100.241549,-74.020594,-14211.954086,2068.457845
22100.241883,1850.514855,-7772.162391,1225.752797
22100.242216,2368.659014,-9548.656652,5515.887586
22100.242549,2294.638420,-4737.318029,689.485948
22100.242883,-814.226536,-8142.265362,-1072.533697
22100.243216,-3701.029710,-8216.285956,-2834.553343
22100.243549,-2738.761985,-8364.327145,-4136.915689
22100.243883,-2220.617826,-7698.141797,-3140.991542
22100.244216,592.164754,-8586.388927,-1455.581446
22100.244549,-1406.391290,-9474.636058,-2221.676944
22100.244883,1554.432478,-11399.171507,-536.266849
22100.245216,4441.235652,-14211.954086,6052.154434
22100.245549,8512.368333,-9474.636058,6665.030833
22100.245883,888.247130,-12213.398043,5209.449386
22100.246216,592.164754,-7772.162391,5132.839837
22100.246549,-222.061783,-9474.636058,229.828649
22100.246883,-3256.906145,-7328.038826,0.000000
22100.247216,-74.020594,-4737.318029,-383.047749
22100.247549,-5329.482782,-8364.327145,-3447.429741
22100.247883,888.247130,-4737.318029,-2451.505594
22100.248216,-8364.327145,-14211.954086,-4060.306139
22100.248549,962.267725,-7105.977043,-3753.867940
22100.248883,-5921.647536,-13101.645173,3677.258390
22100.249216,3182.885551,-7105.977043,2374.896044
22100.249549,7031.956449,-9474.636058,3294.210641
22100.249883,-74.020594,-11769.274478,3600.648841
22100.250216,4071.132681,-11695.253884,2451.505594
22100.250549,-2368.659014,-7476.080014,919.314598
22100.250883,2738.761985,-11769.274478,1225.752797
22100.251216,-3552.988522,-5551.544565,0.000000
22100.251549,1998.556043,-7105.977043,-1915.238745
22100.251883,-2368.659014,-8068.244768,2068.457845
22100.252216,-222.061783,-4737.318029,-6205.373534
22100.252549,-3552.988522,-9548.656652,-7201.297681
22100.252883,-2072.576638,-11325.150913,2681.334243
22100.253216,4145.153275,-8364.327145,3600.648841
22100.253549,4293.194464,-10214.842000,5439.278036
22100.253883,4663.297435,-7994.224174,3217.601092
22100.254216,2590.720797,-11547.212695,3217.601092
22100.254549,1702.473667,-7476.080014,612.876398
22100.254883,3478.967927,-11843.295072,-76.609550
22100.255216,-74.020594,-10955.047942,-2451.505594
22100.255549,-4737.318029,-7920.203579,-1915.238745
22100.255883,-6513.812290,-11843.295072,-4979.620737
22100.256216,222.061783,-3256.906145,-2834.553343
22100.256549,1776.494261,-11325.150913,2604.724693
22100.256883,3997.112087,-3627.009116,3370.820191
22100.257216,814.226536,-11843.295072,2987.772442
22100.257549,0.000000,-6587.832884,3217.601092
22100.257883,6439.791695,-8882.471304,459.657299
22100.258216,1480.411884,-11917.315666,76.609550
22100.258549,5921.647536,-8956.491898,6665.030833
22100.258883,-3627.009116,-16580.613101,-536.266849
22100.259216,962.267725,-8364.327145,-3140.991542
22100.259549,-5181.441594,-9104.533087,-2298.286494
22100.259883,-1628.453072,-9104.533087,-766.095498
22100.260216,-1184.329507,-3108.864956,0.000000
22100.260549,-4441.235652,-11695.253884,-383.047749
22100.260883,1998.556043,-5033.400406,536.266849
22100.261216,-814.226536,-9992.780217,4826.401637
22100.261549,3256.906145,-5107.421000,1302.362347
22100.261883,-1258.350101,-13027.624579,2987.772442
22100.262216,1480.411884,-6587.832884,0.000000
22100.262549,0.000000,-11325.150913,3600.648841
22100.262883,-74.020594,-10658.965565,-1455.581446
22100.263216,0.000000,-9918.759623,-1225.752797
22100.263549,-1554.432478,-13471.748144,-689.485948
22100.263883,0.000000,-9030.512492,-383.047749
22100.264216,-2368.659014,-5403.503377,-2221.676944
22100.264549,-1998.556043,-10362.883188,-76.609550
22100.264883,1184.329507,-666.185348,0.000000
22100.265216,2368.659014,-7179.997637,4596.572988
22100.265549,4663.297435,-7698.141797,1149.143247
22100.265883,5847.626942,-11843.295072,-1455.581446
22100.266216,1184.329507,-13989.892304,4443.353888
22100.266549,7031.956449,-5921.647536,2145.067394
22100.266883,1406.391290,-12657.521608,0.000000
22100.267216,-222.061783,-10510.924376,-1072.533697
22100.267549,-962.267725,-10955.047942,-3600.648841
22100.267883,0.000000,-9844.739029,0.000000
22100.268216,0.000000,-7179.997637,2987.772442
22100.268549,-2442.679609,-9474.636058,-1608.800546
22100.268883,-1184.329507,-6291.750507,0.000000
22100.269216,518.144159,-8882.471304,-76.609550
22100.269549,1184.329507,-3923.091493,2451.505594
22100.269883,4071.132681,-9474.636058,3524.039291
22100.270216,5847.626942,-6661.853478,4673.182538
22100.270549,1998.556043,-8734.430116,1149.143247
22100.270883,2294.638420,-14211.954086,-76.609550
22100.271216,518.144159,-11843.295072,-3753.867940
22100.271549,-1850.514855,-16654.633695,-5822.325785
22100.271883,0.000000,-10288.862594,1072.533697
22100.272216,-3034.844362,-11843.295072,-2834.553343
22100.272549,-3034.844362,-9844.739029,3294.210641
22100.272883,-222.061783,-4293.194464,229.828649
22100.273216,2072.576638,-8808.450710,5669.106685
22100.273549,3108.864956,-1406.391290,5592.497135
22100.273883,1184.329507,-5403.503377,3983.696590
22100.274216,1110.308913,-7031.956449,306.438199
22100.274549,0.000000,-8512.368333,0.000000
22100.274883,1702.473667,-12435.459826,-2528.115143
22100.275216,-2220.617826,-11917.315666,-3677.258390
22100.275549,-4811.338623,-13989.892304,-4366.744339
22100.275883,-8512.368333,-13397.727550,-3064.381992
22100.276216,-2738.761985,-5921.647536,-4826.401637
22100.276549,-3330.926739,-12065.356855,-1915.238745
22100.276883,0.000000,-7179.997637,2757.943793
22100.277216,1998.556043,-5477.523971,4290.134789
22100.277549,2368.659014,-7772.162391,6358.592633
22100.277883,3627.009116,-3849.070898,4213.525239
22100.278216,4441.235652,-6883.915261,3907.087040
22100.278549,3701.029710,-5329.482782,1762.019645
22100.278883,5847.626942,-14211.954086,1762.019645
22100.279216,-1850.514855,-10732.986159,-2451.505594
22100.279549,-2220.617826,-14211.954086,-4290.134789
22100.279883,-3627.009116,-14656.077652,-2681.334243
22100.280216,-5329.482782,-9844.739029,-4903.011187
22100.280549,-2812.782580,-11251.130318,-842.705048
22100.280883,-666.185348,-5699.585753,1455.581446
22100.281216,2294.638420,-5847.626942,4903.011187
22100.281549,1480.411884,-4219.173869,4903.011187
22100.281883,3775.050304,-4293.194464,1838.629195
22100.282216,2368.659014,-6291.750507,5362.668486
22100.282549,6957.935855,-9474.636058,2374.896044
22100.282883,4663.297435,-9474.636058,-1302.362347
22100.283216,1184.329507,-11621.233289,-3140.991542
22100.283549,222.061783,-14582.057057,-4749.792088
22100.283883,-1924.535449,-13841.851115,-3753.867940
22100.284216,296.082377,-13175.665768,-3140.991542
22100.284549,1110.308913,-13027.624579,-76.609550
22100.284883,2590.720797,-7476.080014,0.000000
22100.285216,148.041188,-8364.327145,3677.258390
22100.285549,4959.379811,-5921.647536,5745.716235
22100.285883,3034.844362,-5107.421000,4903.011187
22100.286216,6883.915261,-1776.494261,4826.401637
22100.286549,1480.411884,-7772.162391,1685.410096
22100.286883,740.205942,-5995.668130,-995.924147
22100.287216,-2146.597232,-11547.212695,-6665.030833
22100.287549,-4071.132681,-14211.954086,-6511.811733
22100.287883,-4737.318029,-9548.656652,-4903.011187
22100.288216,-5181.441594,-16580.613101,-4979.620737
22100.288549,-4811.338623,-13027.624579,-3140.991542
22100.288883,-9474.636058,-8364.327145,0.000000
22100.289216,4071.132681,-4737.318029,5439.278036
22100.289549,3997.112087,-5107.421000,7737.564530
22100.289883,5847.626942,-7624.121203,9576.193725
22100.290216,3849.070898,-3034.844362,5209.449386
22100.290549,592.164754,-9178.553681,2374.896044
22100.290883,1184.329507,-6365.771101,229.828649
22100.291216,-2368.659014,-11843.295072,-3753.867940
22100.291549,-1480.411884,-11103.089130,-4213.525239
22100.291883,-5921.647536,-13989.892304,-5669.106685
22100.292216,-1554.432478,-13027.624579,-4366.744339
22100.292549,-6587.832884,-13767.830521,-3524.039291
22100.292883,-4737.318029,-9548.656652,1838.629195
22100.293216,-370.102971,-9474.636058,2604.724693
22100.293549,0.000000,-4811.338623,6128.763984
22100.293883,5699.585753,-2960.823768,7890.783629
22100.294216,2072.576638,-5033.400406,8044.002729
22100.294549,5551.544565,-2886.803174,2451.505594
22100.294883,-74.020594,-7698.141797,-383.047749
22100.295216,592.164754,-13027.624579,-3140.991542
22100.295549,-5921.647536,-11917.315666,-5822.325785
22100.295883,-1258.350101,-14211.954086,-6205.373534
22100.296216,-74.020594,-14804.118840,-6971.469032
22100.296549,-962.267725,-13767.830521,-689.485948
22100.296883,2146.597232,-10807.006753,383.047749
22100.297216,4293.194464,-9696.697840,7277.907231
22100.297549,5625.565159,-5995.668130,7890.783629
22100.297883,1480.411884,-4811.338623,4903.011187
22100.298216,4663.297435,-6513.812290,4213.525239
22100.298549,2960.823768,-4811.338623,5439.278036
22100.298883,4663.297435,-8290.306550,3600.648841
22100.299216,2368.659014,-4811.338623,-4596.572988
22100.299549,-2368.659014,-12361.439231,-3140.991542
22100.299883,-5625.565159,-10732.986159,-8580.269578
22100.300216,-2516.700203,-12953.603985,-7967.393179
22100.300549,-4663.297435,-14211.954086,-5898.935335
22100.300883,-592.164754,-12509.480420,-2145.067394
22100.301216,-1258.350101,-10066.800811,0.000000
22100.301549,3775.050304,-9474.636058,8503.660028
22100.301883,6439.791695,-4737.318029,7277.907231
22100.302216,4145.153275,-4811.338623,9959.241474
22100.302549,6661.853478,-4219.173869,4979.620737
22100.302883,962.267725,-9104.533087,2604.724693
22100.303216,666.185348,-7105.977043,-2221.676944
22100.303549,-2072.576638,-11103.089130,-3753.867940
22100.303883,-1036.288319,-11251.130318,-3753.867940
22100.304216,-3552.988522,-9844.739029,-3064.381992
22100.304549,-666.185348,-13027.624579,-3753.867940
22100.304883,-3775.050304,-10658.965565,-3753.867940
22100.305216,-4441.235652,-11325.150913,766.095498
22100.305549,1184.329507,-10658.965565,4826.401637
22100.305883,3256.906145,-5403.503377,6205.373534
22100.306216,296.082377,-7772.162391,5362.668486
22100.306549,1332.370696,-4071.132681,3217.601092
22100.306883,1110.308913,-7105.977043,4213.525239
22100.307216,2368.659014,-4219.173869,1532.190996
22100.307549,-1998.556043,-10140.821405,-612.876398
22100.307883,-2442.679609,-7105.977043,-4979.620737
22100.308216,-4219.173869,-13545.768739,-7431.126331
22100.308549,-1258.350101,-14211.954086,-1608.800546
22100.308883,-1776.494261,-10140.821405,-2451.505594
22100.309216,0.000000,-12805.562797,4673.182538
22100.309549,1702.473667,-11251.130318,2374.896044
22100.309883,1924.535449,-5477.523971,1838.629195
22100.310216,5699.585753,-11251.130318,7890.783629
22100.310549,4663.297435,-5329.482782,5898.935335
22100.310883,444.123565,-7105.977043,1685.410096
22100.311216,1554.432478,-7031.956449,766.095498
22100.311549,-2442.679609,-8734.430116,-2221.676944
22100.311883,-2368.659014,-5995.668130,-4903.011187
22100.312216,-74.020594,-13027.624579,-3140.991542
22100.312549,-1850.514855,-8882.471304,-5515.887586
22100.312883,-1776.494261,-10732.986159,-3064.381992
22100.313216,-74.020594,-10066.800811,76.609550
22100.313549,148.041188,-9548.656652,1072.533697
22100.313883,2294.638420,-8068.244768,2681.334243
22100.314216,2516.700203,-10066.800811,5132.839837
22100.314549,2368.659014,-8068.244768,4903.011187
22100.314883,0.000000,-4811.338623,7967.393179
22100.315216,2294.638420,-6809.894666,-1915.238745
22100.315549,-2812.782580,-10140.821405,-4903.011187
22100.315883,-3552.988522,-10732.986159,-842.705048
22100.316216,-2368.659014,-5995.668130,-4596.572988
22100.316549,-222.061783,-9326.594869,-76.609550
22100.316883,1036.288319,-8290.306550,-1532.190996
22100.317216,-222.061783,-12139.377449,2987.772442
22100.317549,5255.462188,-7105.977043,2374.896044
22100.317883,3256.906145,-11029.068536,6052.154434
22100.318216,2294.638420,-7698.141797,229.828649
22100.318549,2960.823768,-8364.327145,3677.258390
22100.318883,2294.638420,-11843.295072,2374.896044
22100.319216,-592.164754,-13249.686362,-1685.410096
22100.319549,-3552.988522,-7105.977043,-1149.143247
22100.319883,-4515.256246,-8660.409521,-1991.848295
22100.320216,-74.020594,-7031.956449,-2374.896044
22100.320549,-2886.803174,-7772.162391,1072.533697
22100.320883,-666.185348,-7698.141797,-4060.306139
22100.321216,2368.659014,-9548.656652,4903.011187
22100.321549,3034.844362,-11251.130318,6665.030833
22100.321883,4737.318029,-4219.173869,3370.820191
22100.322216,1184.329507,-11325.150913,5439.278036
22100.322549,2886.803174,-9770.718434,-1378.971896
22100.322883,2442.679609,-10214.842000,-383.047749
22100.323216,1554.432478,-12509.480420,766.095498
22100.323549,-4441.235652,-9548.656652,-4903.011187
22100.323883,-4219.173869,-11029.068536,-4903.011187
22100.324216,-1258.350101,-11843.295072,-919.314598
22100.324549,-74.020594,-5329.482782,995.924147
22100.324883,2368.659014,-7920.203579,76.609550
22100.325216,1406.391290,-9474.636058,5132.839837
22100.325549,4663.297435,-7105.977043,7277.907231
22100.325883,1110.308913,-7772.162391,2757.943793
22100.326216,3552.988522,-6439.791695,3064.381992
22100.326549,444.123565,-11251.130318,-1762.019645
22100.326883,0.000000,-9548.656652,-2145.067394
22100.327216,-1406.391290,-10510.924376,-1378.971896
22100.327549,-3256.906145,-12583.501014,-3983.696590
22100.327883,-3997.112087,-9104.533087,-2145.067394
22100.328216,-3552.988522,-9548.656652,-4903.011187
22100.328549,-3627.009116,-14211.954086,-2681.334243
22100.328883,-74.020594,-4959.379811,153.219100
22100.329216,2072.576638,-7698.141797,4519.963438
22100.329549,5847.626942,-4737.318029,6665.030833
22100.329883,5033.400406,-6291.750507,7584.345430
22100.330216,3923.091493,-8216.285956,5822.325785
22100.330549,4737.318029,-6883.915261,3447.429741
22100.330883,0.000000,-9548.656652,-612.876398
22100.331216,2738.761985,-11843.295072,-2221.676944
22100.331549,-2146.597232,-16580.613101,-4366.744339
22100.331882,-4145.153275,-9548.656652,-8733.488677
22100.332216,-8882.471304,-14285.974681,-3370.820191
22100.332549,-3330.926739,-9178.553681,-1608.800546
22100.332882,-74.020594,-4441.235652,-536.266849
22100.333215,-1702.473667,-8216.285956,4519.963438
22100.333549,2664.741391,-2590.720797,5515.887586
22100.333882,2960.823768,-7105.977043,7201.297681
22100.334215,8216.285956,-4737.318029,7277.907231
22100.334549,296.082377,-7179.997637,4903.011187
22100.334882,4663.297435,-11251.130318,995.924147
22100.335215,-1554.432478,-10066.800811,-4979.620737
22100.335548,-3552.988522,-11917.315666,-6741.640382
22100.335882,-1258.350101,-15988.448347,-5286.058936
22100.336215,-2368.659014,-11917.315666,-2987.772442
22100.336548,-2590.720797,-11103.089130,-3140.991542
22100.336881,-4737.318029,-10214.842000,0.000000
22100.337215,518.144159,-9474.636058,4213.525239
22100.337548,3034.844362,-4515.256246,6358.592633
22100.337881,7624.121203,-4737.318029,9116.536426
22100.338214,1776.494261,-5921.647536,7507.735880
22100.338548,3552.988522,-3923.091493,5209.449386
22100.338881,2294.638420,-9474.636058,2068.457845
22100.339214,0.000000,-8660.409521,-3064.381992
22100.339548,-296.082377,-12139.377449,-4060.306139
22100.339881,-4811.338623,-12953.603985,-9193.145976
22100.340214,-7698.141797,-13101.645173,-8580.269578
22100.340547,-5107.421000,-12361.439231,-6205.373534
22100.340881,-2442.679609,-11547.212695,-1608.800546
22100.341214,-3627.009116,-11547.212695,-76.609550
22100.341547,4071.132681,-5921.647536,7277.907231
22100.341880,2960.823768,-8290.306550,10955.165621
22100.342214,5921.647536,-74.020594,9806.022374
22100.342547,5847.626942,-8290.306550,9729.412825
22100.342880,6735.874072,-4145.153275,1072.533697
22100.343213,6143.709319,-9474.636058,3600.648841
22100.343547,-2738.761985,-13767.830521,-6971.469032
22100.343880,-222.061783,-9918.759623,-9422.974625
22100.344213,-9030.512492,-17246.798449,-7660.954980
22100.344547,-2294.638420,-10140.821405,-9269.755526
22100.344880,-3923.091493,-15988.448347,-2528.115143
22100.345213,-2960.823768,-7476.080014,1225.752797
22100.345546,1184.329507,-7846.182985,5745.716235
22100.345880,3182.885551,-4737.318029,6665.030833
22100.346213,3997.112087,-3404.947333,9499.584175
22100.346546,3997.112087,-1258.350101,8273.831378
22100.346879,5181.441594,-5403.503377,5592.497135
22100.347213,2072.576638,-8142.265362,995.924147
22100.347546,1184.329507,-10881.027347,-3064.381992
22100.347879,-3627.009116,-11843.295072,-9652.803275
22100.348212,-2146.597232,-13027.624579,-7967.393179
22100.348546,-1998.556043,-17764.942608,-6205.373534
22100.348879,-1332.370696,-11917.315666,-2451.505594
22100.349212,0.000000,-9548.656652,0.000000
22100.349546,1554.432478,-10066.800811,4213.525239
22100.349879,4071.132681,-7920.203579,7660.954980
22100.350212,3552.988522,-3552.988522,6511.811733
22100.350545,6143.709319,-4737.318029,4826.401637
22100.350879,0.000000,-7772.162391,5515.887586
22100.351212,4663.297435,-5921.647536,1149.143247
22100.351545,-1184.329507,-9548.656652,-3447.429741
22100.351878,-1776.494261,-11917.315666,-1608.800546
22100.352212,-4145.153275,-11029.068536,-6128.763984
22100.352545,-3552.988522,-13249.686362,-5592.497135
22100.352878,-2960.823768,-10732.986159,-4290.134789
22100.353211,-3330.926739,-14211.954086,-3830.477490
22100.353545,2072.576638,-9474.636058,2987.772442
22100.353878,-1184.329507,-8660.409521,5669.106685
22100.354211,3478.967927,-5551.544565,5056.230287
22100.354545,3108.864956,-6069.688724,6358.592633
22100.354878,3108.864956,-7624.121203,5822.325785
22100.355211,4663.297435,-4737.318029,4826.401637
22100.355544,-1776.494261,-9696.697840,-1072.533697
22100.355878,2294.638420,-13027.624579,-689.485948
22100.356211,-6513.812290,-10140.821405,-4903.011187
22100.356544,-3552.988522,-11547.212695,-3907.087040
22100.356877,-4367.215058,-13027.624579,-5286.058936
22100.357211,-4737.318029,-11621.233289,-2834.553343
22100.357544,1036.288319,-7772.162391,842.705048
22100.357877,1776.494261,-9844.739029,5515.887586
22100.358210,2886.803174,-4737.318029,1302.362347
22100.358544,0.000000,-7179.997637,4290.134789
22100.358877,4663.297435,-6513.812290,4519.963438
22100.359210,5255.462188,-6069.688724,1838.629195
22100.359544,2960.823768,-9474.636058,3907.087040
22100.359877,1702.473667,-7698.141797,-3447.429741
22100.360210,-1702.473667,-13915.871710,-1991.848295
22100.360543,0.000000,-10584.944971,-2528.115143
22100.360877,-2442.679609,-10807.006753,-4826.401637
22100.361210,-3997.112087,-11917.315666,-4903.011187
22100.361543,-3552.988522,-8364.327145,2911.162892
22100.361876,-74.020594,-8290.306550,1149.143247
22100.362210,3478.967927,-2442.679609,1532.190996
22100.362543,2368.659014,-8956.491898,7890.783629
22100.362876,4367.215058,-3330.926739,3217.601092
22100.363209,3330.926739,-5921.647536,2987.772442
22100.363543,-2368.659014,-9992.780217,-3370.820191
22100.363876,-740.205942,-10288.862594,-4060.306139
22100.364209,-74.020594,-12435.459826,-4366.744339
22100.364543,0.000000,-15544.324782,-76.609550
22100.364876,1702.473667,-10658.965565,-3753.867940
22100.365209,0.000000,-9548.656652,-2298.286494
22100.365542,-1184.329507,-13693.809927,3907.087040
22100.365876,6513.812290,-5403.503377,7507.735880
22100.366209,2664.741391,-8068.244768,4903.011187
22100.366542,4293.194464,-5477.523971,4903.011187
22100.366875,-2146.597232,-9178.553681,1838.629195
22100.367209,1406.391290,-4737.318029,1302.362347
22100.367542,2886.803174,-9474.636058,1762.019645
22100.367875,-1776.494261,-7179.997637,-2911.162892
22100.368209,-3256.906145,-8364.327145,-2298.286494
22100.368542,-6587.832884,-11843.295072,-7431.126331
22100.368875,-3256.906145,-11325.150913,-4826.401637
22100.369208,-5033.400406,-11917.315666,-2681.334243
22100.369542,-962.267725,-10807.006753,2528.115143
22100.369875,1184.329507,-4663.297435,3447.429741
22100.370208,-1850.514855,-8586.388927,3907.087040
22100.370541,5255.462188,-4737.318029,2681.334243
22100.370875,5921.647536,-7254.018232,7277.907231
22100.371208,4811.338623,-7031.956449,4749.792088
22100.371541,3552.988522,-8068.244768,1762.019645
22100.371874,-2442.679609,-13619.789333,-3753.867940
22100.372208,-444.123565,-12435.459826,-2528.115143
22100.372541,-3923.091493,-9548.656652,-4903.011187
22100.372874,1184.329507,-11769.274478,0.000000
22100.373208,-3256.906145,-11325.150913,153.219100
22100.373541,-2812.782580,-7179.997637,-1225.752797
22100.373874,518.144159,-8882.471304,4749.792088
22100.374207,2146.597232,-6291.750507,5056.230287
22100.374541,2664.741391,-5699.585753,4903.011187
22100.374874,0.000000,-4811.338623,612.876398
22100.375207,-666.185348,-10066.800811,-1915.238745
22100.375540,-2146.597232,-4811.338623,-3064.381992
22100.375874,962.267725,-10362.883188,-383.047749
22100.376207,-74.020594,-9474.636058,-5286.058936
22100.376540,0.000000,-11325.150913,-1685.410096
22100.376873,-1702.473667,-12213.398043,-3370.820191
22100.377207,-1184.329507,-14211.954086,-1608.800546
22100.377540,2294.638420,-10362.883188,2221.676944
22100.377873,3478.967927,-11251.130318,5745.716235
22100.378207,5847.626942,-7846.182985,6128.763984
22100.378540,3552.988522,-5551.544565,4903.011187
22100.378873,6439.791695,-9474.636058,3600.648841
22100.379206,370.102971,-2442.679609,1532.190996
22100.379540,-74.020594,-10066.800811,-383.047749
22100.379873,-2442.679609,-8438.347739,-2834.553343
22100.380206,-3108.864956,-11621.233289,-4443.353888
22100.380539,-2590.720797,-9548.656652,-2911.162892
22100.380873,-666.185348,-11843.295072,-4366.744339
22100.381206,-3627.009116,-10732.986159,0.000000
22100.381539,-888.247130,-8512.368333,1455.581446
22100.381872,1998.556043,-11843.295072,3600.648841
22100.382206,0.000000,-2442.679609,3677.258390
22100.382539,-666.185348,-12731.542202,4826.401637
22100.382872,2960.823768,-4811.338623,4903.011187
22100.383206,1554.432478,-7698.141797,4136.915689
22100.383539,4071.132681,-5699.585753,-1532.190996
22100.383872,1702.473667,-12435.459826,2374.896044
22100.384205,-1480.411884,-8660.409521,-3447.429741
22100.384539,-222.061783,-11991.336260,-3524.039291
22100.384872,-2738.761985,-11991.336260,-3140.991542
22100.385205,0.000000,-10140.821405,-2451.505594
22100.385538,-74.020594,-12731.542202,-76.609550
22100.385872,1110.308913,-9326.594869,689.485948
22100.386205,-2886.803174,-6587.832884,1838.629195
22100.386538,4293.194464,-8882.471304,4826.401637
22100.386871,3849.070898,-5403.503377,5745.716235
22100.387205,2368.659014,-6217.729913,3907.087040
22100.387538,2368.659014,-4737.318029,536.266849
22100.387871,-3404.947333,-12139.377449,-2451.505594
22100.388205,-74.020594,-9474.636058,-2528.115143
22100.388538,-1850.514855,-14211.954086,-1915.238745
22100.388871,-2368.659014,-9548.656652,-6128.763984
22100.389204,-2960.823768,-11917.315666,-2451.505594
22100.389538,-74.020594,-11251.130318,1455.581446
22100.389871,5847.626942,-5329.482782,4290.134789
22100.390204,3997.112087,-8586.388927,3983.696590
22100.390537,5551.544565,-7698.141797,3907.087040
22100.390871,3997.112087,-9178.553681,3064.381992
22100.391204,1332.370696,-9770.718434,1838.629195
22100.391537,1702.473667,-9474.636058,-1302.362347
22100.391870,-2072.576638,-11325.150913,-2451.505594
22100.392204,-962.267725,-9474.636058,-2834.553343
22100.392537,-5033.400406,-9474.636058,-5439.278036
22100.392870,-814.226536,-9474.636058,-689.485948
22100.393204,-2146.597232,-10658.965565,306.438199
22100.393537,2294.638420,-6809.894666,842.705048
22100.393870,370.102971,-9918.759623,6665.030833
22100.394203,2960.823768,-5403.503377,2451.505594
22100.394537,3478.967927,-9326.594869,2604.724693
22100.394870,2516.700203,-9548.656652,3677.258390
22100.395203,4663.297435,-11843.295072,2374.896044
22100.395536,-5329.482782,-7772.162391,306.438199
22100.395870,-2072.576638,-9548.656652,-3677.258390
22100.396203,-4737.318029,-10288.862594,-4596.572988
22100.396536,-2072.576638,-11695.253884,-2911.162892
22100.396869,-1776.494261,-9326.594869,-229.828649
22100.397203,-2442.679609,-10362.883188,-76.609550
22100.397536,0.000000,-5995.668130,2451.505594
22100.397869,4071.132681,-5921.647536,3600.648841
22100.398203,4071.132681,-5773.606348,2681.334243
22100.398536,592.164754,-8364.327145,3907.087040
22100.398869,1480.411884,-9696.697840,0.000000
22100.399202,-1036.288319,-10436.903782,-766.095498
22100.399536,1110.308913,-11399.171507,-383.047749
22100.399869,-2960.823768,-11177.109724,-2681.334243
22100.400202,-4367.215058,-13915.871710,-4366.744339
22100.400535,-4441.235652,-9548.656652,-1302.362347
22100.400869,-2072.576638,-10732.986159,-1608.800546
22100.401202,0.000000,-6217.729913,1455.581446
22100.401535,518.144159,-7031.956449,2681.334243
22100.401868,4663.297435,-7105.977043,6052.154434
22100.402202,1480.411884,-4219.173869,5515.887586
22100.402535,4663.297435,-10955.047942,4826.401637
22100.402868,2886.803174,-3775.050304,0.000000
22100.403202,-592.164754,-12287.418637,-5286.058936
22100.403535,2960.823768,-14063.912898,-689.485948
22100.403868,-1184.329507,-13693.809927,-2528.115143
22100.404201,1480.411884,-11177.109724,-2451.505594
22100.404535,-2368.659014,-12139.377449,-2604.724693
22100.404868,74.020594,-10288.862594,-1838.629195
22100.405201,-2368.659014,-6587.832884,3677.258390
22100.405534,1702.473667,-8290.306550,3600.648841
22100.405868,2738.761985,-1850.514855,4903.011187
22100.406201,2368.659014,-6735.874072,7890.783629
22100.406534,3923.091493,-4737.318029,1762.019645
22100.406867,-1776.494261,-11177.109724,2221.676944
22100.407201,2960.823768,-6587.832884,-459.657299
22100.407534,-2220.617826,-11917.315666,-1762.019645
22100.407867,2294.638420,-11843.295072,-2528.115143
22100.408201,-1554.432478,-18357.107362,-1302.362347
22100.408534,-3478.967927,-9548.656652,-6588.421283
22100.408867,592.164754,-10732.986159,-2451.505594
22100.409200,-2368.659014,-11621.233289,3294.210641
22100.409534,1184.329507,-6143.709319,4596.572988
22100.409867,-74.020594,-6217.729913,4213.525239
22100.410200,2886.803174,-8586.388927,6511.811733
22100.410533,5329.482782,-2146.597232,4443.353888
22100.410867,4737.318029,-6661.853478,6741.640382
22100.411200,1998.556043,-6217.729913,-995.924147
22100.411533,-2220.617826,-10140.821405,0.000000
22100.411866,-3923.091493,-13471.748144,-7124.688131
22100.412200,-1850.514855,-15988.448347,-6205.373534
22100.412533,-6513.812290,-13619.789333,-5132.839837
22100.412866,-3034.844362,-12287.418637,-2528.115143
22100.413200,-4737.318029,-8956.491898,-1225.752797
22100.413533,-296.082377,-5773.606348,1455.581446
22100.413866,1184.329507,-9548.656652,7354.516781
22100.414199,2368.659014,-1258.350101,6894.859482
22100.414533,4367.215058,-4737.318029,6052.154434
22100.414866,-74.020594,-6587.832884,0.000000
22100.415199,5625.565159,-6069.688724,4596.572988
22100.415532,-2368.659014,-11917.315666,1149.143247
22100.415866,3034.844362,-7328.038826,-5822.325785
22100.416199,-5403.503377,-16580.613101,-8044.002729
22100.416532,-4293.194464,-15692.365970,-4903.011187
22100.416865,1702.473667,-11843.295072,-1915.238745
22100.417199,-2072.576638,-11325.150913,0.000000
22100.417532,666.185348,-8290.306550,0.000000
22100.417865,1776.494261,-6883.915261,5745.716235
22100.418199,3256.906145,-4367.215058,5822.325785
22100.418532,6809.894666,-5329.482782,6128.763984
22100.418865,1776.494261,-7179.997637,3677.258390
22100.419198,1480.411884,-7402.059420,1762.019645
22100.419532,-1850.514855,-10288.862594,-1762.019645
22100.419865,-1184.329507,-8956.491898,-4443.353888
22100.420198,-1554.432478,-14508.036463,-2528.115143
22100.420531,0.000000,-8660.409521,-3524.039291
22100.420865,-1850.514855,-13545.768739,-2757.943793
22100.421198,-2442.679609,-9326.594869,-2374.896044
22100.421531,1702.473667,-8882.471304,-1608.800546
22100.421864,0.000000,-10881.027347,4290.134789
22100.422198,8808.450710,-5921.647536,9729.412825
22100.422531,2294.638420,-5255.462188,3830.477490
22100.422864,3552.988522,-7179.997637,8886.707777
22100.423198,3478.967927,-5773.606348,-153.219100
22100.423531,3330.926739,-11251.130318,1608.800546
22100.423864,1924.535449,-10584.944971,842.705048
22100.424197,-3923.091493,-12731.542202,-6588.421283
22100.424531,-3849.070898,-10140.821405,-6741.640382
22100.424864,-5921.647536,-13989.892304,-2068.457845
22100.425197,-1554.432478,-10510.924376,-2145.067394
22100.425530,-1258.350101,-7254.018232,-1225.752797
22100.425864,1332.370696,-10955.047942,4213.525239
22100.426197,-1332.370696,-4811.338623,3983.696590
22100.426530,4663.297435,-2590.720797,6205.373534
22100.426863,3923.091493,-8068.244768,5056.230287
22100.427197,5329.482782,-5699.585753,6205.373534
22100.427530,2368.659014,-8512.368333,1838.629195
22100.427863,-74.020594,-15396.283594,-689.485948
22100.428196,-1554.432478,-10658.965565,-6052.154434
22100.428530,-7105.977043,-11917.315666,-9806.022374
22100.428863,-2442.679609,-11547.212695,-4366.744339
22100.429196,-4589.276840,-14285.974681,-4903.011187
22100.429529,-3404.947333,-11695.253884,919.314598
22100.429862,1110.308913,-5699.585753,3830.477490
22100.430196,3256.906145,-7550.100608,7584.345430
22100.430529,5921.647536,-3034.844362,7354.516781
22100.430862,1184.329507,-7254.018232,4979.620737
22100.431195,6439.791695,-3627.009116,4519.963438
22100.431529,222.061783,-10510.924376,1915.238745
22100.431862,1110.308913,-5995.668130,-3983.696590
22100.432195,-2442.679609,-13915.871710,-4979.620737
22100.432528,-8290.306550,-13693.809927,-7967.393179
22100.432862,-2738.761985,-12435.459826,-8044.002729
22100.433195,-3552.988522,-13101.645173,-4596.572988
22100.433528,-814.226536,-7179.997637,0.000000
22100.433861,-74.020594,-9400.615463,3447.429741
22100.434194,5181.441594,-6217.729913,6205.373534
22100.434528,4959.379811,-4071.132681,6894.859482
22100.434861,8808.450710,-6513.812290,3600.648841
22100.435194,4367.215058,-10732.986159,5439.278036
22100.435527,3478.967927,-5995.668130,1225.752797
22100.435861,1480.411884,-10510.924376,1149.143247
22100.436194,-74.020594,-10658.965565,-2528.115143
22100.436527,-2442.679609,-14952.160028,-5209.449386
22100.436860,-1036.288319,-10955.047942,-2221.676944
22100.437193,-4219.173869,-11695.253884,-4060.306139
22100.437527,-1850.514855,-11399.171507,-536.266849
22100.437860,-1850.514855,-9030.512492,2451.505594
22100.438193,2368.659014,-4811.338623,5975.544884
22100.438526,2368.659014,-4811.338623,2451.505594
22100.438860,3552.988522,-7179.997637,6511.811733
22100.439193,5847.626942,-6513.812290,4136.915689
22100.439526,1406.391290,-7105.977043,0.000000
22100.439859,4367.215058,-10732.986159,-306.438199
22100.440193,-518.144159,-11547.212695,-3447.429741
22100.440526,1258.350101,-10732.986159,-2834.553343
22100.440859,-4219.173869,-14359.995275,-4596.572988
22100.441192,-666.185348,-14211.954086,-3753.867940
22100.441525,-5921.647536,-11325.150913,-612.876398
22100.441859,0.000000,-9548.656652,3983.696590
22100.442192,1702.473667,-7698.141797,4519.963438
22100.442525,0.000000,-1850.514855,3677.258390
22100.442858,2294.638420,-7698.141797,3064.381992
22100.443192,3256.906145,-3997.112087,5286.058936
22100.443525,2960.823768,-8364.327145,3447.429741
22100.443858,1998.556043,-6217.729913,2145.067394
22100.444191,-2960.823768,-9548.656652,-3677.258390
22100.444524,-2960.823768,-11547.212695,-5745.716235
22100.444858,-2738.761985,-14508.036463,-6358.592633
22100.445191,-6217.729913,-11917.315666,-7967.393179
22100.445524,-3552.988522,-13841.851115,-2451.505594
22100.445857,-2368.659014,-9696.697840,0.000000
22100.446191,296.082377,-7920.203579,4290.134789
22100.446524,3404.947333,-5699.585753,6665.030833
22100.446857,4737.318029,-6291.750507,7584.345430
22100.447190,4811.338623,-4219.173869,5822.325785
22100.447523,5847.626942,-5329.482782,3753.867940
22100.447857,4071.132681,-7846.182985,0.000000
22100.448190,-1850.514855,-12509.480420,-1378.971896
22100.448523,-74.020594,-13027.624579,-4060.306139
22100.448856,-3330.926739,-11695.253884,-6128.763984
22100.449190,-1776.494261,-12139.377449,-1838.629195
22100.449523,-3182.885551,-13027.624579,-3140.991542
22100.449856,-4663.297435,-9548.656652,-1838.629195
22100.450189,0.000000,-7476.080014,3907.087040
22100.450523,1480.411884,-6291.750507,6741.640382
22100.450856,4515.256246,-3256.906145,5898.935335
22100.451189,1998.556043,-8068.244768,5592.497135
22100.451522,1110.308913,-3404.947333,536.266849
22100.451855,1702.473667,-5403.503377,0.000000
22100.452189,592.164754,-11843.295072,-1915.238745
22100.452522,4071.132681,-11843.295072,-3753.867940
22100.452855,-4589.276840,-14582.057057,-2451.505594
22100.453188,1110.308913,-11251.130318,-4060.306139
22100.453522,-2812.782580,-12583.501014,-2298.286494
22100.453855,-296.082377,-12287.418637,-536.266849
22100.454188,2738.761985,-6809.894666,3524.039291
22100.454521,1184.329507,-7772.162391,7660.954980
22100.454854,2886.803174,-4219.173869,4903.011187
22100.455188,4663.297435,-7105.977043,4826.401637
22100.455521,2368.659014,-5403.503377,2604.724693
22100.455854,-2368.659014,-8364.327145,306.438199
22100.456187,-592.164754,-6661.853478,-4213.525239
22100.456521,-5699.585753,-13471.748144,-7431.126331
22100.456854,-2516.700203,-10807.006753,-3064.381992
22100.457187,-2294.638420,-9474.636058,-5132.839837
22100.457520,-74.020594,-10362.883188,-4979.620737
22100.457854,0.000000,-13101.645173,4519.963438
22100.458187,3478.967927,-9474.636058,1762.019645
22100.458520,1702.473667,-9548.656652,3064.381992
22100.458853,3108.864956,-7105.977043,3677.258390
22100.459186,5847.626942,-9474.636058,7737.564530
22100.459520,1184.329507,-7476.080014,4290.134789
22100.459853,5625.565159,-6735.874072,2987.772442
22100.460186,-3034.844362,-12879.583391,-1225.752797
22100.460519,666.185348,-4515.256246,-5439.278036
22100.460853,-2442.679609,-14211.954086,-2834.553343
22100.461186,-3552.988522,-8364.327145,-4749.792088
22100.461519,-4737.318029,-7772.162391,-1838.629195
22100.461852,-2738.761985,-11843.295072,-1608.800546
22100.462185,3775.050304,-7994.224174,2604.724693
22100.462519,962.267725,-10362.883188,6281.983084
22100.462852,4145.153275,-7402.059420,3983.696590
22100.463185,2368.659014,-7179.997637,3677.258390
22100.463518,-1702.473667,-9844.739029,842.705048
22100.463852,2590.720797,-7105.977043,-1302.362347
22100.464185,-2664.741391,-12213.398043,-1685.410096
22100.464518,-888.247130,-8956.491898,-3140.991542
22100.464851,-3182.885551,-7031.956449,-1991.848295
22100.465185,-814.226536,-8290.306550,-4979.620737
22100.465518,296.082377,-11843.295072,3217.601092
22100.465851,1998.556043,-8882.471304,-76.609550
22100.466184,-2812.782580,-10732.986159,2451.505594
22100.466517,2368.659014,-2738.761985,3677.258390
22100.466851,3478.967927,-9770.718434,1685.410096
22100.467184,6735.874072,-6069.688724,4366.744339
22100.467517,2442.679609,-10214.842000,3217.601092
22100.467850,-1554.432478,-9474.636058,-1455.581446
22100.468184,0.000000,-10732.986159,0.000000
22100.468517,-2738.761985,-14211.954086,-4979.620737
22100.468850,814.226536,-9474.636058,-1608.800546
22100.469183,-5477.523971,-9548.656652,-3677.258390
22100.469516,814.226536,-9178.553681,-76.609550
22100.469850,0.000000,-4811.338623,3217.601092
22100.470183,2294.638420,-7994.224174,4826.401637
22100.470516,5921.647536,-3182.885551,5286.058936
22100.470849,0.000000,-11769.274478,1302.362347
22100.471183,6809.894666,-7105.977043,2681.334243
22100.471516,2294.638420,-14211.954086,-1302.362347
22100.471849,2960.823768,-10140.821405,612.876398
22100.472182,-2368.659014,-11621.233289,-76.609550
22100.472516,-1850.514855,-13323.706956,-5592.497135
22100.472849,-2368.659014,-12435.459826,-689.485948
22100.473182,-2738.761985,-8290.306550,-3217.601092
22100.473515,0.000000,-9548.656652,0.000000
22100.473848,-740.205942,-7846.182985,3830.477490
22100.474182,3182.885551,-6513.812290,4826.401637
22100.474515,1480.411884,-1258.350101,2451.505594
22100.474848,3849.070898,-8882.471304,5439.278036
22100.475181,2294.638420,-7920.203579,-1608.800546
22100.475515,2812.782580,-10732.986159,-2451.505594
22100.475848,2072.576638,-14804.118840,2374.896044
22100.476181,-1480.411884,-12435.459826,-2528.115143
22100.476514,-2368.659014,-9844.739029,-4903.011187
22100.476847,-4293.194464,-12731.542202,-3447.429741
22100.477181,-1850.514855,-8882.471304,-76.609550
22100.477514,-1776.494261,-6809.894666,2451.505594
22100.477847,-3108.864956,-8808.450710,2451.505594
22100.478180,2664.741391,-2516.700203,4749.792088
22100.478514,1184.329507,-4219.173869,5515.887586
22100.478847,3849.070898,-6587.832884,7277.907231
22100.479180,-74.020594,-7772.162391,0.000000
22100.479513,592.164754,-9400.615463,-1225.752797
22100.479847,518.144159,-15988.448347,-2528.115143
22100.480180,0.000000,-10881.027347,-4290.134789
22100.480513,-2812.782580,-12583.501014,-2757.943793
22100.480846,-3478.967927,-11399.171507,-4903.011187
22100.481179,-222.061783,-11769.274478,-306.438199
22100.481513,-2442.679609,-12731.542202,-76.609550
22100.481846,-962.267725,-4959.379811,2987.772442
22100.482179,-74.020594,-6809.894666,3294.210641
22100.482512,2368.659014,-3627.009116,7967.393179
22100.482846,6217.729913,-4071.132681,9116.536426
22100.483179,4663.297435,-4737.318029,7277.907231
22100.483512,1924.535449,-8586.388927,-1302.362347
22100.483845,-1110.308913,-12361.439231,-2911.162892
22100.484178,-1184.329507,-11251.130318,-6971.469032
22100.484512,-3552.988522,-15692.365970,-6358.592633
22100.484845,-1184.329507,-13693.809927,-2528.115143
22100.485178,-4441.235652,-10732.986159,-7048.078582
22100.485511,-2368.659014,-12361.439231,842.705048
22100.485845,-74.020594,-6513.812290,1302.362347
22100.486178,1702.473667,-6587.832884,3677.258390
22100.486511,7031.956449,-3849.070898,9959.241474
22100.486844,4441.235652,-3997.112087,7890.783629
22100.487177,3627.009116,-5181.441594,3753.867940
22100.487511,5847.626942,-8290.306550,2681.334243
22100.487844,4071.132681,-10658.965565,-689.485948
22100.488177,2368.659014,-11029.068536,-3217.601092
22100.488510,-444.123565,-18283.086767,-2528.115143
22100.488844,-1850.514855,-11325.150913,-9806.022374
22100.489177,-4737.318029,-15470.304188,-3677.258390
22100.489510,-3256.906145,-10436.903782,-1532.190996
22100.489843,-3775.050304,-10066.800811,-383.047749
22100.490177,-1110.308913,-5847.626942,5669.106685
22100.490510,-74.020594,-5403.503377,8044.002729
22100.490843,3552.988522,2886.803174,7354.516781
22100.491176,5921.647536,-2368.659014,9729.412825
22100.491509,2886.803174,-10362.883188,2374.896044
22100.491843,1110.308913,-8364.327145,0.000000
22100.492176,-2368.659014,-9548.656652,-5515.887586
22100.492509,-814.226536,-14285.974681,-8120.612279
22100.492842,-2368.659014,-13471.748144,-8044.002729
22100.493176,-2738.761985,-15914.427753,-5515.887586
22100.493509,-2664.741391,-13027.624579,-3830.477490
22100.493842,-370.102971,-9548.656652,766.095498
22100.494175,-2146.597232,-10955.047942,3447.429741
22100.494508,3182.885551,-1776.494261,8503.660028
22100.494842,1110.308913,-5699.585753,8503.660028
22100.495175,4367.215058,-3552.988522,9729.412825
22100.495508,4663.297435,-2072.576638,5515.887586
22100.495841,888.247130,-6291.750507,7354.516781
22100.496175,4663.297435,-5921.647536,-4519.963438
22100.496508,-7105.977043,-14285.974681,-7354.516781
22100.496841,-5921.647536,-14434.015869,-9882.631924
22100.497174,-6069.688724,-15766.386565,-9806.022374
22100.497508,-3997.112087,-17172.777854,-4290.134789
22100.497841,-2294.638420,-11547.212695,-2451.505594
22100.498174,1554.432478,-10658.965565,4060.306139
22100.498507,4071.132681,-2812.782580,5209.449386
22100.498840,4737.318029,-5255.462188,9729.412825
22100.499174,7031.956449,-5403.503377,12180.918418
22100.499507,4663.297435,-4293.194464,6128.763984
22100.499840,2886.803174,-8290.306550,4213.525239
22100.500173,3552.988522,-5403.503377,766.095498
22100.500507,-1776.494261,-12361.439231,-5132.839837
22100.500840,888.247130,-9474.636058,-8963.317327
22100.501173,-3552.988522,-17838.963202,-7354.516781
22100.501506,-3034.844362,-12065.356855,-9806.022374
22100.501839,-1258.350101,-13619.789333,-3753.867940
22100.502173,-1850.514855,-14211.954086,383.047749
22100.502506,1554.432478,-5403.503377,2451.505594
22100.502839,1184.329507,-3627.009116,6281.983084
22100.503172,4811.338623,-4737.318029,8197.221829
22100.503506,5181.441594,-3701.029710,9882.631924
22100.503839,4589.276840,-2738.761985,6052.154434
22100.504172,5847.626942,-8290.306550,1608.800546
22100.504505,-4737.318029,-15470.304188,-2145.067394
22100.504839,-1258.350101,-12435.459826,-7431.126331
22100.505172,-2442.679609,-14285.974681,-7814.174080
22100.505505,740.205942,-9844.739029,-6128.763984
22100.505838,-2220.617826,-15248.242405,-1838.629195
22100.506171,-222.061783,-10510.924376,-1608.800546
22100.506505,1850.514855,-8364.327145,2681.334243
22100.506838,222.061783,-9178.553681,4826.401637
22100.507171,6143.709319,-3552.988522,6052.154434
22100.507504,2812.782580,-9474.636058,7890.783629
22100.507838,3478.967927,-3034.844362,1838.629195
22100.508171,0.000000,-5995.668130,2451.505594
22100.508504,3478.967927,-11251.130318,3600.648841
22100.508837,1702.473667,-6661.853478,-919.314598
22100.509170,-3997.112087,-12287.418637,-7124.688131
22100.509504,-4737.318029,-10881.027347,-8580.269578
22100.509837,-6587.832884,-13101.645173,-7967.393179
22100.510170,-3627.009116,-14211.954086,-2528.115143
22100.510503,1110.308913,-8290.306550,2681.334243
22100.510837,888.247130,-9474.636058,4673.182538
22100.511170,2516.700203,-3330.926739,6588.421283
22100.511503,3404.947333,-6439.791695,4903.011187
22100.511836,4071.132681,-6513.812290,4060.306139
22100.512170,4145.153275,-8586.388927,7890.783629
22100.512503,1998.556043,-8882.471304,-2374.896044
22100.512836,296.082377,-11177.109724,-76.609550
22100.513169,-2368.659014,-12213.398043,-3370.820191
22100.513502,-814.226536,-10066.800811,-8350.440928
22100.513836,-1036.288319,-12731.542202,-5209.449386
22100.514169,-1036.288319,-15766.386565,76.609550
22100.514502,1036.288319,-6291.750507,919.314598
22100.514835,0.000000,-9548.656652,3064.381992
22100.515169,1628.453072,-7105.977043,2374.896044
22100.515502,1702.473667,-4145.153275,2068.457845
22100.515835,1184.329507,-6587.832884,5822.325785
22100.516168,4663.297435,-9474.636058,3600.648841
22100.516501,-3552.988522,-7772.162391,0.000000
22100.516835,-814.226536,-8364.327145,-5286.058936
22100.517168,-2368.659014,-12065.356855,-2068.457845
22100.517501,-1036.288319,-10436.903782,-2604.724693
22100.517834,-1184.329507,-9548.656652,-2451.505594
22100.518168,-666.185348,-16284.530724,-689.485948
22100.518501,962.267725,-7179.997637,0.000000
22100.518834,0.000000,-8364.327145,6128.763984
22100.519167,6735.874072,-7698.141797,5439.278036
22100.519501,2664.741391,-7772.162391,6205.373534
22100.519834,2146.597232,-8586.388927,2451.505594
22100.520167,1406.391290,-9548.656652,2987.772442
22100.520500,-666.185348,-8734.430116,1149.143247
22100.520833,-666.185348,-7698.141797,-2528.115143
22100.521167,-3034.844362,-7179.997637,-6818.249932
22100.521500,-2368.659014,-11029.068536,-2068.457845
22100.521833,-3627.009116,-15100.201217,-2528.115143
22100.522166,-1258.350101,-6439.791695,-2221.676944
22100.522500,-2960.823768,-10658.965565,1455.581446
22100.522833,1850.514855,-6291.750507,5592.497135
22100.523166,3108.864956,-5033.400406,3677.258390
22100.523499,5551.544565,-7179.997637,5898.935335
22100.523832,2294.638420,-5773.606348,2068.457845
22100.524166,-370.102971,-8512.368333,-612.876398
22100.524499,-1110.308913,-11621.233289,-1991.848295
22100.524832,-1776.494261,-9548.656652,-3217.601092
22100.525165,-3552.988522,-9548.656652,-4903.011187
22100.525499,1184.329507,-8364.327145,-2604.724693
22100.525832,3478.967927,-11547.212695,229.828649
22100.526165,-3552.988522,-8364.327145,-4290.134789
22100.526498,4737.318029,-8438.347739,4903.011187
22100.526832,0.000000,-9844.739029,0.000000
22100.527165,4811.338623,-10881.027347,4903.011187
22100.527498,2664.741391,-8586.388927,3294.210641
22100.527831,4959.379811,-8660.409521,3370.820191
22100.528164,6439.791695,-7994.224174,7890.783629
22100.528498,2294.638420,-5699.585753,2068.457845
22100.528831,2294.638420,-5921.647536,-4673.182538
22100.529164,-6513.812290,-12213.398043,-4290.134789
22100.529497,-2960.823768,-10140.821405,-4979.620737
22100.529831,-4367.215058,-12953.603985,-1991.848295
22100.530164,-1184.329507,-8660.409521,-1608.800546
22100.530497,-2368.659014,-6661.853478,306.438199
22100.530830,1332.370696,-7994.224174,2834.553343
22100.531163,2146.597232,-7105.977043,2681.334243
22100.531496,0.000000,-9844.739029,5286.058936
22100.531829,592.164754,-7772.162391,0.000000
22100.532162,1184.329507,-9474.636058,3294.210641
22100.532495,1702.473667,-9178.553681,-1225.752797
22100.532828,0.000000,-8956.491898,306.438199
22100.533161,-74.020594,-8882.471304,-1608.800546
22100.533494,-3256.906145,-8956.491898,0.000000
22100.533828,-2516.700203,-8882.471304,-5592.497135
22100.534161,-2368.659014,-12953.603985,-1762.019645
22100.534494,-74.020594,-11251.130318,1762.019645
22100.534827,-2960.823768,-6587.832884,2451.505594
22100.535160,2738.761985,-9178.553681,4826.401637
22100.535493,3478.967927,-9474.636058,1608.800546
22100.535826,0.000000,-8364.327145,6128.763984
22100.536159,2294.638420,-4737.318029,1149.143247
22100.536492,-518.144159,-10288.862594,919.314598
22100.536825,-2072.576638,-7920.203579,-1225.752797
22100.537158,-1554.432478,-8586.388927,-383.047749
22100.537491,-1628.453072,-5995.668130,-2911.162892
22100.537825,-7105.977043,-9548.656652,-1225.752797
22100.538158,-74.020594,-6217.729913,-3447.429741
22100.538491,-2368.659014,-7179.997637,-2145.067394
22100.538824,0.000000,-10140.821405,1838.629195
22100.539157,4663.297435,-7031.956449,-766.095498
22100.539490,2886.803174,-12435.459826,3294.210641
22100.539823,5033.400406,-9696.697840,3983.696590
22100.540156,2442.679609,-8882.471304,1762.019645
22100.540489,1628.453072,-9696.697840,-1608.800546
22100.540822,2590.720797,-8734.430116,-2604.724693
22100.541155,1110.308913,-13027.624579,-1149.143247
22100.541489,2664.741391,-9030.512492,3217.601092
22100.541822,1110.308913,-8882.471304,2374.896044
22100.542155,-74.020594,-7994.224174,-2528.115143
22100.542488,-4145.153275,-7772.162391,0.000000
22100.542821,0.000000,-6587.832884,2681.334243
22100.543154,2294.638420,-6513.812290,2681.334243
22100.543487,1184.329507,-8956.491898,2451.505594
22100.543820,2886.803174,-8586.388927,1455.581446
22100.544153,222.061783,-9474.636058,-306.438199
22100.544486,1036.288319,-11547.212695,-1608.800546
22100.544819,-1998.556043,-11251.130318,-5439.278036
22100.545152,-2294.638420,-13545.768739,-2528.115143
22100.545486,-2368.659014,-8956.491898,-1378.971896
22100.545819,3182.885551,-9474.636058,3600.648841
22100.546152,3478.967927,-6957.935855,2451.505594
22100.546485,3478.967927,-4737.318029,7890.783629
22100.546818,3849.070898,-2738.761985,5515.887586
22100.547151,370.102971,-11547.212695,1532.190996
22100.547484,1036.288319,-10510.924376,842.705048
22100.547817,0.000000,-8660.409521,0.000000
22100.548150,1110.308913,-10658.965565,-995.924147
22100.548483,-296.082377,-8142.265362,-1302.362347
22100.548816,-7179.997637,-15470.304188,-6128.763984
22100.549149,-4145.153275,-7179.997637,-6741.640382
22100.549483,-7105.977043,-13101.645173,-1072.533697
22100.549816,-2220.617826,-7254.018232,-229.828649
22100.550149,0.000000,-8882.471304,6435.202183
22100.550482,888.247130,-4441.235652,4749.792088
22100.550815,8216.285956,-7105.977043,9729.412825
22100.551148,1258.350101,-5995.668130,8580.269578
22100.551481,8216.285956,-4145.153275,3600.648841
22100.551814,-74.020594,-9622.677246,-2987.772442
22100.552147,2368.659014,-10658.965565,-2528.115143
22100.552480,-1258.350101,-15988.448347,-5592.497135
22100.552813,148.041188,-11103.089130,-4519.963438
22100.553146,-4367.215058,-15766.386565,-4290.134789
22100.553480,-1924.535449,-8216.285956,-3753.867940
22100.553813,-1628.453072,-9622.677246,0.000000
22100.554146,-3552.988522,-9548.656652,2528.115143
22100.554479,7031.956449,-2368.659014,3677.258390
22100.554812,1184.329507,-5995.668130,7967.393179
22100.555145,7624.121203,-7105.977043,7277.907231
22100.555478,2886.803174,-6957.935855,4213.525239
22100.555811,4737.318029,-11991.336260,3600.648841
22100.556144,2812.782580,-6587.832884,-2298.286494
22100.556477,-518.144159,-17172.777854,-2221.676944
22100.556810,-1628.453072,-10658.965565,-7201.297681
22100.557143,-6365.771101,-15470.304188,-6205.373534
22100.557477,-1480.411884,-11325.150913,-3600.648841
22100.557810,0.000000,-8882.471304,-1608.800546
22100.558143,1036.288319,-10955.047942,1149.143247
22100.558476,7328.038826,-7105.977043,8503.660028
22100.558809,2664.741391,-6365.771101,10418.898773
22100.559142,7031.956449,-4737.318029,9116.536426
22100.559475,-1924.535449,-4219.173869,2757.943793
22100.559808,-1184.329507,-9770.718434,-3294.210641
22100.560141,1702.473667,-10658.965565,-1915.238745
22100.560474,-5773.606348,-11695.253884,-5515.887586
22100.560807,-6661.853478,-15248.242405,-4903.011187
22100.561140,-5403.503377,-9918.759623,-6588.421283
22100.561474,-4737.318029,-8956.491898,-4596.572988
22100.561807,-2368.659014,-8660.409521,1915.238745
22100.562140,2294.638420,-4811.338623,2834.553343
22100.562473,-666.185348,-5107.421000,1838.629195
22100.562806,2664.741391,-7031.956449,6358.592633
22100.563139,4663.297435,-4811.338623,4903.011187
22100.563472,3108.864956,-7105.977043,3983.696590
22100.563805,3552.988522,-10140.821405,3830.477490
22100.564138,-592.164754,-10732.986159,766.095498
22100.564471,2072.576638,-9844.739029,-3677.258390
22100.564804,-2368.659014,-15766.386565,-76.609550
22100.565137,-666.185348,-7920.203579,-4903.011187
22100.565471,-3849.070898,-11917.315666,-3370.820191
22100.565804,1776.494261,-9474.636058,1455.581446
22100.566137,-2960.823768,-7772.162391,1838.629195
22100.566470,-444.123565,-7179.997637,1762.019645
22100.566803,3775.050304,-2072.576638,4213.525239
22100.567136,2368.659014,-6661.853478,4903.011187
22100.567469,4663.297435,-7105.977043,4826.401637
22100.567802,3478.967927,-9474.636058,-76.609550
22100.568135,-2960.823768,-10140.821405,-3677.258390
22100.568468,0.000000,-12213.398043,-2068.457845
22100.568801,-74.020594,-12731.542202,-3140.991542
22100.569135,-666.185348,-14211.954086,-2528.115143
22100.569468,-2368.659014,-10955.047942,-1302.362347
22100.569801,1110.308913,-8660.409521,-383.047749
22100.570134,2072.576638,-8364.327145,4749.792088
22100.570467,4737.318029,-4811.338623,3064.381992
22100.570800,4367.215058,-5255.462188,1838.629195
22100.571133,2072.576638,-9252.574275,3677.258390
22100.571466,4663.297435,-9474.636058,-2528.115143
22100.571799,0.000000,-11621.233289,1532.190996
22100.572132,2146.597232,-13027.624579,-689.485948
22100.572465,1628.453072,-9030.512492,-612.876398
22100.572798,-3923.091493,-12361.439231,-2528.115143
22100.573132,0.000000,-10584.944971,-2987.772442
22100.573465,-4145.153275,-9548.656652,612.876398
22100.573798,-3330.926739,-8734.430116,-2451.505594
22100.574131,-1258.350101,-5773.606348,536.266849
22100.574464,-2812.782580,-9252.574275,1149.143247
22100.574797,3849.070898,-4811.338623,4519.963438
22100.575130,-1184.329507,-4219.173869,2987.772442
22100.575463,3775.050304,-9474.636058,-76.609550
22100.575796,0.000000,-9548.656652,2451.505594
22100.576129,2886.803174,-8586.388927,-995.924147
22100.576462,2220.617826,-11621.233289,459.657299
22100.576795,-4441.235652,-12583.501014,-2451.505594
22100.577129,-666.185348,-9844.739029,-1991.848295
22100.577462,-3627.009116,-11547.212695,-536.266849
22100.577795,1924.535449,-6957.935855,2528.115143
22100.578128,-3552.988522,-9252.574275,3064.381992
22100.578461,518.144159,-4219.173869,-2451.505594
22100.578794,0.000000,-4811.338623,1225.752797
22100.579127,-1184.329507,-11695.253884,2374.896044
22100.579460,3182.885551,-6809.894666,-1608.800546
22100.579793,1184.329507,-11843.295072,2068.457845
22100.580126,1628.453072,-12879.583391,2604.724693
22100.580459,3404.947333,-4885.359217,0.000000
22100.580792,-666.185348,-11695.253884,-1149.143247
22100.581126,-1554.432478,-11843.295072,-689.485948
22100.581459,-3034.844362,-7476.080014,-2451.505594
22100.581792,-2960.823768,-9548.656652,-2451.505594
22100.582125,-3552.988522,-10362.883188,1762.019645
22100.582458,-4737.318029,-5995.668130,0.000000
22100.582791,1110.308913,-8290.306550,2374.896044
22100.583124,5107.421000,-4145.153275,2834.553343
22100.583457,3108.864956,-10658.965565,1685.410096
22100.583790,6143.709319,-6809.894666,3370.820191
22100.584123,1258.350101,-8290.306550,-1915.238745
22100.584456,0.000000,-11325.150913,0.000000
22100.584789,3330.926739,-11843.295072,-3447.429741
22100.585123,-2294.638420,-14804.118840,-5132.839837
22100.585456,0.000000,-9548.656652,2451.505594
22100.585789,-1258.350101,-7105.977043,-3447.429741
22100.586122,740.205942,-7920.203579,689.485948
22100.586455,-2960.823768,-9030.512492,3294.210641
22100.586788,1406.391290,-6809.894666,689.485948
22100.587121,1480.411884,-7105.977043,3907.087040
22100.587454,1702.473667,-7994.224174,1762.019645
22100.587787,3478.967927,-6957.935855,1455.581446
22100.588120,1554.432478,-8808.450710,536.266849
22100.588453,2960.823768,-10140.821405,-1455.581446
22100.588786,-370.102971,-13915.871710,-3753.867940
22100.589120,0.000000,-11917.315666,-3677.258390
22100.589453,-4737.318029,-11917.315666,-995.924147
22100.589786,-1850.514855,-11843.295072,-2528.115143
22100.590119,-1776.494261,-7476.080014,0.000000
22100.590452,-518.144159,-9918.759623,2374.896044
22100.590785,4145.153275,-5551.544565,8044.002729
22100.591118,814.226536,-3108.864956,5592.497135
22100.591451,4663.297435,-6513.812290,2374.896044
22100.591784,2664.741391,-9474.636058,3600.648841
22100.592117,0.000000,-5403.503377,0.000000
22100.592450,3478.967927,-12435.459826,-76.609550
22100.592784,-740.205942,-14804.118840,-2834.553343
22100.593117,-74.020594,-11029.068536,-6435.202183
22100.593450,-4071.132681,-14508.036463,-5822.325785
22100.593783,-444.123565,-8808.450710,0.000000
22100.594116,-2960.823768,-9474.636058,1685.410096
22100.594449,0.000000,-7179.997637,4903.011187
22100.594782,2294.638420,-7698.141797,5745.716235
22100.595115,-2368.659014,-9696.697840,7890.783629
22100.595448,3478.967927,-3552.988522,3600.648841
22100.595781,0.000000,-8068.244768,2451.505594
22100.596114,3256.906145,-3404.947333,689.485948
22100.596447,-1184.329507,-10584.944971,0.000000
22100.596781,-2072.576638,-10732.986159,-6435.202183
22100.597114,-2590.720797,-13619.789333,-6435.202183
22100.597447,-2664.741391,-15248.242405,-4366.744339
22100.597780,-74.020594,-8956.491898,-4290.134789
22100.598113,-2738.761985,-13619.789333,-76.609550
22100.598446,1702.473667,-8512.368333,-2068.457845
22100.598779,2072.576638,-8808.450710,9729.412825
22100.599112,7994.224174,-7698.141797,10572.117872
22100.599445,6291.750507,-4515.256246,9882.631924
22100.599778,1184.329507,-6439.791695,3294.210641
22100.600111,1924.535449,-6439.791695,-1225.752797
22100.600444,-1850.514855,-10066.800811,-3140.991542
22100.600778,0.000000,-8364.327145,-2451.505594
22100.601111,-2442.679609,-11843.295072,-6588.421283
22100.601444,-4145.153275,-10732.986159,-6741.640382
22100.601777,-4441.235652,-11325.150913,-3064.381992
22100.602110,-1776.494261,-12731.542202,-76.609550
22100.602443,-1406.391290,-9474.636058,919.314598
22100.602776,-1628.453072,-9622.677246,2528.115143
22100.603109,7254.018232,-4367.215058,7048.078582
22100.603442,4219.173869,-8142.265362,7124.688131
22100.603775,6661.853478,-3923.091493,8580.269578
22100.604108,4737.318029,-5921.647536,5286.058936
22100.604441,1628.453072,-10140.821405,-1608.800546
22100.604775,3997.112087,-8364.327145,-3140.991542
22100.605108,-4219.173869,-13619.789333,-8656.879127
22100.605441,0.000000,-13397.727550,-4903.011187
22100.605774,-148.041188,-12065.356855,-2528.115143
22100.606107,-1850.514855,-13027.624579,-7354.516781
22100.606440,-296.082377,-9992.780217,5209.449386
22100.606773,4515.256246,-4737.318029,5745.716235
22100.607106,3478.967927,-8290.306550,9039.926876
22100.607439,2442.679609,-3701.029710,7354.516781
22100.607772,814.226536,-7105.977043,2681.334243
22100.608105,-1036.288319,-7179.997637,1838.629195
22100.608438,0.000000,-5995.668130,1225.752797
22100.608772,-3627.009116,-10066.800811,-3907.087040
22100.609105,-5403.503377,-9326.594869,-9193.145976
22100.609438,-7698.141797,-13693.809927,-7967.393179
22100.609771,-74.020594,-13915.871710,-4213.525239
22100.610104,74.020594,-10955.047942,1762.019645
22100.610437,740.205942,-8142.265362,1915.238745
22100.610770,296.082377,-8438.347739,4060.306139
22100.611103,2368.659014,-8364.327145,5515.887586
22100.611436,4737.318029,-5403.503377,8350.440928
22100.611769,5255.462188,-8364.327145,1225.752797
22100.612102,1184.329507,-11029.068536,4903.011187
22100.612435,814.226536,-7994.224174,2374.896044
22100.612769,-5329.482782,-10140.821405,-2451.505594
22100.613102,-3256.906145,-4515.256246,-5286.058936
22100.613435,-4219.173869,-9104.533087,-5822.325785
22100.613768,-2368.659014,-9696.697840,-1302.362347
22100.614101,-2590.720797,-11843.295072,-76.609550
22100.614434,-2960.823768,-10362.883188,-76.609550
22100.614767,1110.308913,-7179.997637,0.000000
22100.615100,1184.329507,-10881.027347,5439.278036
22100.615433,4663.297435,-9474.636058,3600.648841
22100.615766,3182.885551,-6883.915261,4826.401637
22100.616099,3256.906145,-9326.594869,2221.676944
22100.616433,2368.659014,-9474.636058,2911.162892
22100.616766,1998.556043,-9844.739029,995.924147
22100.617099,-1480.411884,-7772.162391,-3064.381992
22100.617432,-74.020594,-8290.306550,-3064.381992
22100.617765,296.082377,-8364.327145,-3677.258390
22100.618098,592.164754,-11103.089130,2987.772442
22100.618431,-1406.391290,-8364.327145,-2451.505594
22100.618764,3182.885551,-9696.697840,4826.401637
22100.619097,2368.659014,-5403.503377,1378.971896
22100.619430,2368.659014,-10732.986159,3064.381992
22100.619763,2368.659014,-7328.038826,1762.019645
22100.620096,1480.411884,-4811.338623,-2451.505594
22100.620430,-74.020594,-12287.418637,-2298.286494
22100.620763,1110.308913,-7550.100608,-1915.238745
22100.621096,-2368.659014,-13471.748144,-2834.553343
22100.621429,0.000000,-9770.718434,-3217.601092
22100.621762,-1702.473667,-8882.471304,1149.143247
22100.622095,2294.638420,-11103.089130,4213.525239
22100.622428,1998.556043,-4219.173869,306.438199
22100.622761,0.000000,-9548.656652,2757.943793
22100.623094,6069.688724,-7105.977043,6052.154434
22100.623427,1184.329507,-5995.668130,3983.696590
22100.623760,814.226536,-9252.574275,0.000000
22100.624093,-74.020594,-9770.718434,-1915.238745
22100.624427,-2294.638420,-12583.501014,-2068.457845
22100.624760,-2960.823768,-8660.409521,-6741.640382
22100.625093,-3923.091493,-12731.542202,-5822.325785
22100.625426,-3923.091493,-9548.656652,-3064.381992
22100.625759,-888.247130,-8290.306550,1762.019645
22100.626092,2294.638420,-8290.306550,1149.143247
22100.626425,148.041188,-13397.727550,6971.469032
22100.626758,1850.514855,-4441.235652,6971.469032
22100.627091,1036.288319,-7920.203579,3983.696590
22100.627424,3923.091493,-7402.059420,4979.620737
22100.627757,-518.144159,-9474.636058,2374.896044
22100.628090,-1850.514855,-5403.503377,-2145.067394
22100.628424,-962.267725,-11251.130318,-153.219100
22100.628757,1554.432478,-11843.295072,-3140.991542
22100.629090,-4737.318029,-13693.809927,-2451.505594
22100.629423,-1258.350101,-9474.636058,-3753.867940
22100.629756,-6365.771101,-12065.356855,-5439.278036
22100.630089,-4737.318029,-10807.006753,-1762.019645
22100.630422,2516.700203,-6217.729913,3600.648841
22100.630755,2294.638420,-7105.977043,4826.401637
22100.631088,3552.988522,-3034.844362,9806.022374
22100.631421,1702.473667,-6809.894666,2834.553343
22100.631754,7031.956449,-4737.318029,2221.676944
22100.632087,0.000000,-9548.656652,1225.752797
22100.632420,4663.297435,-9474.636058,-1302.362347
22100.632753,-888.247130,-9252.574275,-2528.115143
22100.633086,-2812.782580,-11695.253884,-6052.154434
22100.633419,-1110.308913,-10955.047942,-6741.640382
22100.633752,-2886.803174,-11843.295072,-2528.115143
22100.634085,888.247130,-8882.471304,-2068.457845
22100.634418,-4441.235652,-12361.439231,1225.752797
22100.634751,4367.215058,-9770.718434,6052.154434
22100.635084,2368.659014,-4811.338623,9806.022374
22100.635417,5847.626942,-7105.977043,8503.660028
22100.635750,8216.285956,-6217.729913,5439.278036
22100.636083,3552.988522,-7179.997637,2987.772442
22100.636416,1184.329507,-8956.491898,536.266849
22100.636749,-1776.494261,-9696.697840,-4903.011187
22100.637082,-3256.906145,-13101.645173,-7967.393179
22100.637415,-3701.029710,-14952.160028,-7354.516781
22100.637748,-5329.482782,-13323.706956,-4673.182538
22100.638081,-666.185348,-13619.789333,-689.485948
22100.638414,-1406.391290,-9474.636058,2374.896044
22100.638747,1184.329507,-5403.503377,3064.381992
22100.639080,4293.194464,-8882.471304,9729.412825
22100.639413,7031.956449,-4145.153275,9422.974625
22100.639746,4071.132681,-4737.318029,4826.401637
22100.640079,3552.988522,-7994.224174,5822.325785
22100.640412,0.000000,-6143.709319,0.000000
22100.640745,-1332.370696,-10066.800811,-1915.238745
22100.641078,-5329.482782,-7772.162391,-7354.516781
22100.641411,-2442.679609,-13619.789333,-7431.126331
22100.641744,-7994.224174,-11917.315666,-4290.134789
22100.642077,-3701.029710,-14804.118840,-2528.115143
22100.642410,-6143.709319,-11843.295072,-3294.210641
22100.642744,-1480.411884,-6809.894666,3217.601092
22100.643077,3034.844362,-5699.585753,7660.954980
22100.643410,7772.162391,-3997.112087,10725.336972
22100.643743,4885.359217,-4293.194464,8120.612279
22100.644076,3552.988522,-6883.915261,3677.258390
22100.644409,2294.638420,-9178.553681,919.314598
22100.644742,1480.411884,-11843.295072,-76.609550
22100.645075,-74.020594,-13619.789333,-4673.182538
22100.645408,-5329.482782,-10732.986159,-7354.516781
22100.645741,-3552.988522,-12509.480420,-4443.353888
22100.646074,-2590.720797,-12287.418637,-1915.238745
22100.646407,-1554.432478,-7105.977043,-2528.115143
22100.646740,-518.144159,-8290.306550,153.219100
22100.647073,2146.597232,-8882.471304,5439.278036
22100.647406,1776.494261,-5995.668130,9806.022374
22100.647739,7624.121203,-4737.318029,5745.716235
22100.648072,3701.029710,-7772.162391,3677.258390
22100.648405,4959.379811,-9178.553681,2374.896044
22100.648738,3034.844362,-9252.574275,0.000000
22100.649071,-2368.659014,-13027.624579,-5132.839837
22100.649404,-1702.473667,-10658.965565,-7277.907231
22100.649737,-4219.173869,-14211.954086,-6205.373534
22100.650070,-1258.350101,-11251.130318,-4366.744339
22100.650403,-2368.659014,-7772.162391,-536.266849
22100.650736,1406.391290,-10066.800811,2068.457845
22100.651069,4441.235652,-5255.462188,5515.887586
22100.651402,4145.153275,-5699.585753,5056.230287
22100.651735,8216.285956,-9474.636058,4826.401637
22100.652068,2368.659014,-10732.986159,6435.202183
22100.652401,7031.956449,-10658.965565,3600.648841
22100.652734,592.164754,-8660.409521,612.876398
22100.653067,-518.144159,-10288.862594,-3753.867940
22100.653400,-4071.132681,-14211.954086,-4366.744339
22100.653733,-6143.709319,-10362.883188,-3907.087040
22100.654066,-3701.029710,-9178.553681,-4213.525239
22100.654399,-2442.679609,-8734.430116,-689.485948
22100.654732,-370.102971,-10066.800811,1608.800546
22100.655065,592.164754,-3923.091493,5515.887586
22100.655398,1110.308913,-7105.977043,4213.525239
22100.655731,4663.297435,-7105.977043,2374.896044
22100.656064,2960.823768,-8364.327145,4596.572988
22100.656397,2294.638420,-10658.965565,1762.019645
22100.656730,2072.576638,-8956.491898,-459.657299
22100.657063,-4515.256246,-13693.809927,-3600.648841
22100.657396,-1480.411884,-10881.027347,-4596.572988
22100.657729,-3552.988522,-11325.150913,-3370.820191
22100.658062,-4737.318029,-7772.162391,612.876398
22100.658395,-74.020594,-10066.800811,-1302.362347
22100.658728,-814.226536,-7698.141797,3907.087040
22100.659061,-1776.494261,-2738.761985,2451.505594
22100.659394,2738.761985,-3330.926739,0.000000
22100.659727,666.185348,-12139.377449,4826.401637
22100.660060,2368.659014,-6291.750507,3753.867940
22100.660393,1184.329507,-8586.388927,842.705048
22100.660726,1110.308913,-9474.636058,1149.143247
22100.661059,-1184.329507,-11103.089130,-76.609550
22100.661392,-74.020594,-9474.636058,-3294.210641
22100.661725,-2368.659014,-10436.903782,-3370.820191
22100.662058,-7105.977043,-10732.986159,-3524.039291
22100.662391,-1184.329507,-9252.574275,2374.896044
22100.662724,-2072.576638,-9104.533087,306.438199
22100.663057,592.164754,-8512.368333,2451.505594
22100.663390,2960.823768,-6291.750507,5439.278036
22100.663724,3404.947333,-5625.565159,4519.963438
22100.664057,4663.297435,-4737.318029,536.266849
22100.664390,3256.906145,-10436.903782,0.000000
22100.664723,3404.947333,-14211.954086,3600.648841
22100.665056,2590.720797,-8956.491898,-3064.381992
22100.665389,-1184.329507,-14878.139434,-1072.533697
22100.665722,-814.226536,-7179.997637,-4290.134789
22100.666055,-4811.338623,-12731.542202,-4903.011187
22100.666388,-2368.659014,-8734.430116,-1072.533697
22100.666721,-3182.885551,-9844.739029,-2451.505594
22100.667054,1702.473667,-8216.285956,4826.401637
22100.667387,4219.173869,-5995.668130,3753.867940
22100.667720,5551.544565,-9400.615463,6971.469032
22100.668053,2220.617826,-5995.668130,2451.505594
22100.668386,3182.885551,-4737.318029,1149.143247
22100.668719,3923.091493,-10658.965565,2987.772442
22100.669052,814.226536,-10140.821405,-4903.011187
22100.669385,-1184.329507,-15840.407159,-2298.286494
22100.669718,-2368.659014,-8808.450710,-4136.915689
22100.670051,-2368.659014,-9548.656652,-2451.505594
22100.670384,-2294.638420,-9178.553681,-919.314598
22100.670717,-962.267725,-8956.491898,2451.505594
22100.671050,-74.020594,-6957.935855,1225.752797
22100.671383,1184.329507,-9548.656652,4903.011187
22100.671716,2294.638420,-4589.276840,3907.087040
22100.672049,4071.132681,-3775.050304,612.876398
22100.672382,1184.329507,-10288.862594,2681.334243
22100.672715,3478.967927,-11547.212695,1762.019645
22100.673048,592.164754,-6291.750507,-2451.505594
22100.673381,-2960.823768,-13101.645173,-2911.162892
22100.673714,-3182.885551,-12509.480420,-4519.963438
22100.674047,-1554.432478,-9918.759623,-2834.553343
22100.674380,-3552.988522,-12435.459826,1149.143247
22100.674713,-1554.432478,-7254.018232,-3064.381992
22100.675046,-2812.782580,-11325.150913,2451.505594
22100.675379,4663.297435,-8882.471304,4826.401637
22100.675712,740.205942,-3627.009116,2451.505594
22100.676045,4367.215058,-10510.924376,5439.278036
22100.676378,3256.906145,-5995.668130,3370.820191
22100.676711,740.205942,-5403.503377,-612.876398
22100.677044,1406.391290,-8808.450710,-3524.039291
22100.677377,-74.020594,-14211.954086,-3753.867940
22100.677710,-3330.926739,-11029.068536,-4596.572988
22100.678043,0.000000,-9844.739029,-1915.238745
22100.678376,-74.020594,-12879.583391,-76.609550
22100.678709,-4367.215058,-7772.162391,-4290.134789
22100.679042,1110.308913,-7994.224174,2068.457845
22100.679375,-592.164754,-8068.244768,3064.381992
22100.679708,3182.885551,-5995.668130,4903.011187
22100.680041,2220.617826,-9770.718434,5592.497135
22100.680374,3182.885551,-8290.306550,5439.278036
22100.680707,0.000000,-5255.462188,612.876398
22100.681040,888.247130,-5773.606348,-3447.429741
22100.681373,-1036.288319,-9918.759623,-4903.011187
22100.681706,-3552.988522,-12509.480420,-4290.134789
22100.682039,-74.020594,-16580.613101,-3753.867940
22100.682372,-1554.432478,-9696.697840,-3524.039291
22100.682705,-3552.988522,-9548.656652,0.000000
22100.683038,2368.659014,-9918.759623,4213.525239
22100.683371,4219.173869,-8512.368333,5515.887586
22100.683704,2220.617826,-7920.203579,2834.553343
22100.684037,4959.379811,-8808.450710,4903.011187
22100.684370,370.102971,-7254.018232,3064.381992
22100.684704,5551.544565,-5773.606348,2374.896044
22100.685037,-222.061783,-10658.965565,-76.609550
22100.685370,-3182.885551,-4219.173869,-8580.269578
22100.685703,-3034.844362,-15692.365970,-2528.115143
22100.686036,-74.020594,-8290.306550,-2528.115143
22100.686369,-74.020594,-10214.842000,0.000000
22100.686702,-962.267725,-8142.265362,1302.362347
22100.687035,-814.226536,-8068.244768,2068.457845
22100.687368,-1850.514855,-10658.965565,3294.210641
22100.687701,2812.782580,-4145.153275,3907.087040
22100.688034,2220.617826,-10955.047942,4213.525239
22100.688367,592.164754,-6291.750507,4903.011187
22100.688700,1554.432478,-9474.636058,2374.896044
22100.689033,296.082377,-3997.112087,-3064.381992
22100.689366,-1036.288319,-11103.089130,-2221.676944
22100.689699,-1628.453072,-9548.656652,-4443.353888
22100.690032,-74.020594,-11177.109724,-3677.258390
22100.690365,-2812.782580,-12509.480420,-3830.477490
22100.690698,2664.741391,-10732.986159,-3370.820191
22100.691031,-74.020594,-13915.871710,3217.601092
22100.691364,7105.977043,-4515.256246,6741.640382
22100.691697,-888.247130,-12435.459826,7277.907231
22100.692030,3478.967927,-5477.523971,2757.943793
22100.692363,-2368.659014,-7179.997637,612.876398
22100.692696,-592.164754,-7698.141797,229.828649
22100.693029,592.164754,-8142.265362,-995.924147
22100.693362,-4737.318029,-9030.512492,-3907.087040
22100.693695,-1258.350101,-7698.141797,-3753.867940
22100.694028,-6365.771101,-7772.162391,-4290.134789
22100.694361,-370.102971,-11843.295072,-2528.115143
22100.694694,-2146.597232,-11843.295072,-689.485948
22100.695027,148.041188,-7179.997637,3064.381992
22100.695360,3552.988522,-7179.997637,4903.011187
22100.695693,2960.823768,-11547.212695,6894.859482
22100.696026,4145.153275,-7105.977043,4060.306139
22100.696359,2664.741391,-9548.656652,2681.334243
22100.696692,2294.638420,-11695.253884,2987.772442
22100.697025,0.000000,-7179.997637,-1532.190996
22100.697358,-2220.617826,-10955.047942,-2374.896044
22100.697691,-1554.432478,-8734.430116,-3140.991542
22100.698024,-2368.659014,-8808.450710,-1915.238745
22100.698357,-74.020594,-9474.636058,2374.896044
22100.698690,-2960.823768,-6883.915261,-1225.752797
22100.699023,-3552.988522,-10140.821405,2451.505594
22100.699356,1850.514855,-7698.141797,2068.457845
22100.699689,370.102971,-8364.327145,0.000000
22100.700022,1480.411884,-13915.871710,5898.935335
22100.700355,3923.091493,-6439.791695,4596.572988
22100.700688,1110.308913,-10658.965565,2681.334243
22100.701021,1702.473667,-6735.874072,229.828649
22100.701354,-5551.544565,-11399.171507,-4443.353888
22100.701687,0.000000,-5403.503377,0.000000
22100.702020,-1184.329507,-9104.533087,-1302.362347
22100.702353,-74.020594,-12731.542202,-3753.867940
22100.702686,-1776.494261,-7772.162391,306.438199
22100.703019,-1850.514855,-11843.295072,-1608.800546
22100.703352,7624.121203,-5625.565159,3600.648841
22100.703685,888.247130,-11917.315666,4826.401637
22100.704018,6883.915261,-7994.224174,2604.724693
22100.704351,592.164754,-7772.162391,0.000000
22100.704684,0.000000,-13397.727550,5286.058936
22100.705017,4663.297435,-6735.874072,2757.943793
22100.705350,-2072.576638,-7179.997637,-3064.381992
22100.705684,1184.329507,-8068.244768,-76.609550
22100.706017,-6661.853478,-10140.821405,-3907.087040
22100.706350,-2664.741391,-7179.997637,-3370.820191
22100.706683,-2664.741391,-7994.224174,-919.314598
22100.707016,296.082377,-10288.862594,1532.190996
22100.707349,3478.967927,-7698.141797,7277.907231
22100.707682,-74.020594,-9474.636058,3600.648841
22100.708015,4663.297435,-6365.771101,-1532.190996
22100.708348,0.000000,-11325.150913,1685.410096
22100.708681,5847.626942,-12435.459826,3600.648841
22100.709014,2294.638420,-9474.636058,536.266849
22100.709347,-1184.329507,-10881.027347,-1838.629195
22100.709680,-1184.329507,-9104.533087,-4136.915689
22100.710013,-74.020594,-11547.212695,-689.485948
22100.710346,0.000000,-9548.656652,153.219100
22100.710679,-74.020594,-7105.977043,-2451.505594
22100.711012,-2368.659014,-7772.162391,0.000000
22100.711345,3330.926739,-8882.471304,4213.525239
22100.711678,1702.473667,-10881.027347,4903.011187
22100.712011,814.226536,-6513.812290,2911.162892
22100.712344,296.082377,-6439.791695,1838.629195
22100.712677,-3923.091493,-10732.986159,-1532.190996
22100.713010,-1480.411884,-10658.965565,-2528.115143
22100.713343,-5625.565159,-10732.986159,-3370.820191
22100.713676,-666.185348,-7920.203579,-3677.258390
22100.714009,-666.185348,-10362.883188,-3983.696590
22100.714342,-2738.761985,-12805.562797,2298.286494
22100.714675,1776.494261,-3627.009116,3447.429741
22100.715008,2368.659014,-4219.173869,1838.629195
22100.715341,5847.626942,-7994.224174,4519.963438
22100.715674,0.000000,-8364.327145,3983.696590
22100.716007,3182.885551,-7994.224174,536.266849
22100.716340,2294.638420,-10658.965565,-1915.238745
22100.716673,1850.514855,-12435.459826,536.266849
22100.717006,-2960.823768,-12583.501014,-3217.601092
22100.717339,-5107.421000,-10436.903782,-5439.278036
22100.717672,-5181.441594,-10140.821405,-5822.325785
22100.718005,-74.020594,-8882.471304,842.705048
22100.718338,0.000000,-6291.750507,5056.230287
22100.718671,0.000000,-6291.750507,4826.401637
22100.719004,1998.556043,-8290.306550,2987.772442
22100.719337,2368.659014,-3627.009116,3064.381992
22100.719670,7624.121203,-9918.759623,1915.238745
22100.720003,5477.523971,-13619.789333,4136.915689
22100.720336,4959.379811,-8734.430116,2451.505594
22100.720669,-666.185348,-12435.459826,-2528.115143
22100.721002,-1998.556043,-10140.821405,-3064.381992
22100.721335,-7105.977043,-12805.562797,-2528.115143
22100.721668,370.102971,-6661.853478,-2528.115143
22100.722001,-370.102971,-10362.883188,-2834.553343
22100.722334,-666.185348,-11177.109724,2987.772442
22100.722667,-2368.659014,-3923.091493,1685.410096
22100.723000,1554.432478,-5847.626942,2221.676944
22100.723333,2664.741391,-7254.018232,4443.353888
22100.723666,3330.926739,-7105.977043,3524.039291
22100.723999,1184.329507,-10510.924376,0.000000
22100.724332,2294.638420,-14211.954086,-76.609550
22100.724665,1702.473667,-9548.656652,-2451.505594
22100.724998,1184.329507,-8956.491898,0.000000
22100.725331,-74.020594,-13619.789333,-76.609550
22100.725664,-4737.318029,-9548.656652,-4903.011187
22100.725997,-2442.679609,-11695.253884,-995.924147
22100.726331,-592.164754,-8068.244768,-1302.362347
22100.726664,296.082377,-9030.512492,2451.505594
22100.726997,1480.411884,-8364.327145,3983.696590
22100.727330,1628.453072,-4589.276840,2604.724693
22100.727663,296.082377,-8512.368333,5669.106685
22100.727996,1628.453072,-7031.956449,1149.143247
22100.728329,1110.308913,-10658.965565,-76.609550
22100.728662,0.000000,-8364.327145,612.876398
22100.728995,-74.020594,-10510.924376,-689.485948
22100.729328,-2664.741391,-7772.162391,-3294.210641
22100.729661,-3256.906145,-9696.697840,-2528.115143
22100.729994,-2442.679609,-11547.212695,-3140.991542
22100.730327,-2220.617826,-9992.780217,0.000000
22100.730660,-2442.679609,-8734.430116,-1532.190996
22100.730993,1406.391290,-7698.141797,1302.362347
22100.731326,1480.411884,-7179.997637,4903.011187
22100.731659,4367.215058,-7994.224174,2757.943793
22100.731992,8216.285956,-7105.977043,3600.648841
22100.732325,592.164754,-9548.656652,1225.752797
22100.732658,3552.988522,-10140.821405,2298.286494
22100.732991,592.164754,-10288.862594,-2451.505594
22100.733322,296.082377,-11843.295072,-4443.353888
22100.733656,296.082377,-10584.944971,-4213.525239
22100.733989,-4219.173869,-14359.995275,-2451.505594
22100.734322,4441.235652,-9474.636058,2374.896044
22100.734655,-5403.503377,-8660.409521,0.000000
22100.734988,4071.132681,-7105.977043,-76.609550
22100.735321,-2738.761985,-8956.491898,4903.011187
22100.735654,4071.132681,-3627.009116,2451.505594
22100.735987,4663.297435,-4737.318029,3600.648841
22100.736320,-74.020594,-7698.141797,-1302.362347
22100.736653,2886.803174,-9548.656652,-2451.505594
22100.736987,296.082377,-12287.418637,536.266849
22100.737320,666.185348,-12139.377449,-5056.230287
22100.737653,-1776.494261,-13841.851115,-2834.553343
22100.737986,-3330.926739,-9696.697840,-6128.763984
22100.738319,-4737.318029,-11917.315666,0.000000
22100.738652,1998.556043,-8290.306550,2068.457845
22100.738985,518.144159,-6513.812290,3294.210641
22100.739318,3404.947333,-8290.306550,6511.811733
22100.739651,3404.947333,-4959.379811,8120.612279
22100.739985,148.041188,-5107.421000,2604.724693
22100.740318,2516.700203,-7254.018232,3677.258390
22100.740651,3478.967927,-7105.977043,4826.401637
22100.740984,148.041188,-7179.997637,-2451.505594
22100.741317,-2886.803174,-14137.933492,-2451.505594
22100.741650,-2738.761985,-11843.295072,-9882.631924
22100.741983,-4811.338623,-12509.480420,-8503.660028
22100.742316,-518.144159,-13471.748144,-1608.800546
22100.742649,-3404.947333,-10955.047942,-2145.067394
22100.742982,814.226536,-6883.915261,1532.190996
22100.743316,1628.453072,-8364.327145,6511.811733
22100.743649,5255.462188,-5921.647536,7277.907231
22100.743982,5033.400406,-7179.997637,10955.165621
22100.744315,3330.926739,-7772.162391,4596.572988
22100.744648,1776.494261,-7920.203579,76.609550
22100.744981,-1776.494261,-9548.656652,0.000000
22100.745314,2886.803174,-10066.800811,-3753.867940
22100.745647,592.164754,-7179.997637,-4903.011187
22100.745980,-1184.329507,-16284.530724,-689.485948
22100.746313,-2738.761985,-7179.997637,-5209.449386
22100.746647,-8882.471304,-13693.809927,-4903.011187
22100.746980,-1480.411884,-9696.697840,-2681.334243
22100.747313,-2146.597232,-12139.377449,4519.963438
22100.747646,3256.906145,-4219.173869,6205.373534
22100.747979,4663.297435,-6513.812290,6971.469032
22100.748312,3478.967927,-5329.482782,2834.553343
22100.748645,6069.688724,-6661.853478,4213.525239
22100.748978,-74.020594,-11251.130318,1149.143247
22100.749311,2960.823768,-5995.668130,-2451.505594
22100.749645,-1628.453072,-15766.386565,-4366.744339
22100.749978,-1480.411884,-13249.686362,-3524.039291
22100.750311,-3627.009116,-11843.295072,-6894.859482
22100.750644,888.247130,-9178.553681,-536.266849
22100.750977,-6661.853478,-11103.089130,-2298.286494
22100.751310,3478.967927,-4811.338623,153.219100
22100.751643,0.000000,-9548.656652,7814.174080
22100.751976,4663.297435,-5773.606348,7277.907231
22100.752309,3775.050304,-6217.729913,4826.401637
22100.752642,1406.391290,-7105.977043,4519.963438
22100.752976,1628.453072,-7550.100608,1608.800546
22100.753309,-4367.215058,-9400.615463,-4443.353888
22100.753642,-2146.597232,-11251.130318,-5439.278036
22100.753975,-3256.906145,-9252.574275,-4826.401637
22100.754308,0.000000,-7772.162391,-5515.887586
22100.754641,-74.020594,-13619.789333,-76.609550
22100.754974,-74.020594,-7698.141797,-2451.505594
22100.755307,0.000000,-11325.150913,1225.752797
22100.755640,4885.359217,-11917.315666,5209.449386
22100.755974,2590.720797,-8290.306550,4060.306139
22100.756307,3923.091493,-8290.306550,4213.525239
22100.756640,5033.400406,-9918.759623,4673.182538
22100.756973,5551.544565,-6809.894666,6665.030833
22100.757306,3552.988522,-7179.997637,3600.648841
22100.757639,-1850.514855,-6809.894666,-3600.648841
22100.757972,-5477.523971,-8364.327145,-6128.763984
22100.758305,-2886.803174,-11547.212695,-3753.867940
22100.758638,-3108.864956,-10140.821405,-4749.792088
22100.758971,-2960.823768,-8956.491898,-2911.162892
22100.759305,-3034.844362,-8142.265362,-3677.258390
22100.759638,1554.432478,-10362.883188,2987.772442
22100.759971,2294.638420,-8290.306550,2987.772442
22100.760304,4737.318029,-8216.285956,5669.106685
22100.760637,2812.782580,-11769.274478,5439.278036
22100.760970,1554.432478,-7994.224174,612.876398
22100.761303,2960.823768,-9326.594869,3064.381992
22100.761636,-74.020594,-10658.965565,1149.143247
22100.761969,1184.329507,-4811.338623,-3370.820191
22100.762302,1184.329507,-12435.459826,-2528.115143
22100.762636,-74.020594,-15470.304188,0.000000
22100.762969,0.000000,-3627.009116,0.000000
22100.763302,-3034.844362,-13027.624579,-1608.800546
22100.763635,592.164754,-8438.347739,1149.143247
22100.763968,-2590.720797,-8882.471304,-766.095498
22100.764301,3775.050304,-7254.018232,2681.334243
22100.764634,222.061783,-8290.306550,2221.676944
22100.764967,-2072.576638,-8660.409521,1149.143247
22100.765300,-2368.659014,-9474.636058,-76.609550
22100.765634,-4737.318029,-6587.832884,-153.219100
22100.765967,-2960.823768,-11103.089130,-842.705048
22100.766300,-2146.597232,-5551.544565,0.000000
22100.766633,-888.247130,-7698.141797,1149.143247
22100.766966,1702.473667,-4589.276840,-1225.752797
22100.767299,4145.153275,-7402.059420,2604.724693
22100.767632,592.164754,-10140.821405,1532.190996
22100.767965,7476.080014,-13619.789333,2374.896044
22100.768298,296.082377,-15470.304188,1225.752797
22100.768631,0.000000,-11917.315666,1991.848295
22100.768965,2294.638420,-8882.471304,-2528.115143
22100.769298,1776.494261,-10732.986159,306.438199
22100.769631,1554.432478,-8142.265362,2681.334243
22100.769964,0.000000,-7846.182985,2221.676944
22100.770297,-1332.370696,-6661.853478,1608.800546
22100.770630,-4515.256246,-8882.471304,1149.143247
22100.770963,-1554.432478,-8290.306550,-1302.362347
22100.771296,-3404.947333,-6291.750507,2451.505594
22100.771629,3330.926739,-8290.306550,4749.792088
22100.771963,2886.803174,-9474.636058,-76.609550
22100.772296,0.000000,-10732.986159,-612.876398
22100.772629,2146.597232,-10066.800811,-3064.381992
22100.772962,-666.185348,-12953.603985,-1915.238745
22100.773295,4071.132681,-10362.883188,-536.266849
22100.773628,-222.061783,-12731.542202,-76.609550
22100.773961,2812.782580,-7550.100608,229.828649
22100.774294,148.041188,-9770.718434,2451.505594
22100.774627,3627.009116,-5329.482782,3140.991542
22100.774960,1998.556043,-5403.503377,306.438199
22100.775294,-3997.112087,-13101.645173,4903.011187
22100.775627,3478.967927,-8290.306550,7890.783629
22100.775960,-222.061783,-4737.318029,-689.485948
22100.776293,0.000000,-10732.986159,2757.943793
22100.776626,-740.205942,-7994.224174,-689.485948
22100.776959,-2664.741391,-7179.997637,-3524.039291
22100.777292,-1850.514855,-8956.491898,-4290.134789
22100.777625,-5329.482782,-11917.315666,-6665.030833
22100.777958,-4145.153275,-11325.150913,-4290.134789
22100.778291,-1850.514855,-9696.697840,-1225.752797
22100.778625,-74.020594,-11251.130318,-689.485948
22100.778958,-2368.659014,-6587.832884,2451.505594
22100.779291,2368.659014,-7920.203579,7890.783629
22100.779624,3552.988522,-6587.832884,6435.202183
22100.779957,6809.894666,-8142.265362,6588.421283
22100.780290,3478.967927,-11103.089130,5056.230287
22100.780623,3849.070898,-6957.935855,1685.410096
22100.780956,222.061783,-11251.130318,-76.609550
22100.781289,-1776.494261,-7772.162391,-4290.134789
22100.781623,-3923.091493,-11843.295072,-9882.631924
22100.781956,-5921.647536,-11029.068536,-6588.421283
22100.782289,-2664.741391,-9474.636058,-4290.134789
22100.782622,-2738.761985,-13027.624579,-689.485948
22100.782955,-1850.514855,-9326.594869,2987.772442
22100.783288,-888.247130,-6587.832884,3140.991542
22100.783621,4589.276840,-8734.430116,5898.935335
22100.783954,6661.853478,-8068.244768,12410.747068
22100.784287,8512.368333,-6217.729913,9729.412825
22100.784620,2960.823768,-6587.832884,5209.449386
22100.784954,0.000000,-8956.491898,306.438199
22100.785287,-74.020594,-10066.800811,-6971.469032
22100.785620,-5329.482782,-10732.986159,-9193.145976
22100.785953,-3330.926739,-13027.624579,-9576.193725
22100.786286,-6143.709319,-12435.459826,-6052.154434
22100.786619,-666.185348,-8512.368333,-1378.971896
22100.786952,-2294.638420,-9104.533087,919.314598
22100.787285,3182.885551,-4737.318029,4826.401637
22100.787618,2368.659014,-6291.750507,11797.870669
22100.787951,5699.585753,-7105.977043,8503.660028
22100.788285,4367.215058,-7550.100608,3064.381992
22100.788618,592.164754,-10140.821405,2757.943793
22100.788951,6439.791695,-7550.100608,0.000000
22100.789284,0.000000,-11473.192101,-1608.800546
22100.789617,74.020594,-11029.068536,-5515.887586
22100.789950,-4885.359217,-11769.274478,-7967.393179
22100.790283,-3923.091493,-11843.295072,-6511.811733
22100.790616,-666.185348,-7254.018232,-3370.820191
22100.790949,-1554.432478,-11547.212695,1302.362347
22100.791283,1110.308913,-8956.491898,7354.516781
22100.791616,-888.247130,-5847.626942,9193.145976
22100.791949,4071.132681,-5329.482782,6052.154434
22100.792282,592.164754,-5107.421000,1225.752797
22100.792615,4663.297435,-11843.295072,3600.648841
22100.792948,2738.761985,-10066.800811,1762.019645
22100.793281,-2590.720797,-8364.327145,-2451.505594
22100.793614,-3627.009116,-10288.862594,-7048.078582
22100.793947,-2886.803174,-12287.418637,-4826.401637
22100.794280,-3330.926739,-10288.862594,-5132.839837
22100.794614,-74.020594,-9474.636058,-2528.115143
22100.794947,-74.020594,-9474.636058,-2528.115143
22100.795280,0.000000,-8364.327145,3140.991542
22100.795613,2368.659014,-10732.986159,9422.974625
22100.795946,6735.874072,-7402.059420,6971.469032
22100.796279,5921.647536,-9104.533087,8810.098227
22100.796612,1776.494261,-6587.832884,2451.505594
22100.796945,1998.556043,-11251.130318,-2681.334243
22100.797278,-666.185348,-14285.974681,-612.876398
22100.797612,148.041188,-6735.874072,-3370.820191
22100.797945,-2738.761985,-9548.656652,-6511.811733
22100.798278,-2368.659014,-9548.656652,-76.609550
22100.798611,-3701.029710,-7698.141797,-3140.991542
22100.798944,-1258.350101,-6957.935855,-2145.067394
22100.799277,-1110.308913,-7698.141797,-1302.362347
22100.799610,-740.205942,-9770.718434,3064.381992
22100.799943,1258.350101,-9548.656652,3524.039291
22100.800276,370.102971,-9030.512492,2068.457845
22100.800609,1480.411884,-9400.615463,1838.629195
22100.800943,1258.350101,-8660.409521,1532.190996
22100.801276,2960.823768,-11029.068536,3600.648841
22100.801609,3478.967927,-7105.977043,-2374.896044
22100.801942,-4441.235652,-10732.986159,-3600.648841
22100.802275,0.000000,-7476.080014,-2451.505594
22100.802608,-962.267725,-8660.409521,-2528.115143
22100.802941,1258.350101,-11177.109724,-1302.362347
22100.803274,370.102971,-9918.759623,2374.896044
22100.803607,3478.967927,-7994.224174,2987.772442
22100.803940,1184.329507,-11029.068536,7584.345430
22100.804274,1998.556043,-3182.885551,2068.457845
22100.804607,-1702.473667,-6291.750507,-2451.505594
22100.804940,1628.453072,-11473.192101,3294.210641
22100.805273,-888.247130,-7476.080014,-1838.629195
22100.805606,-2812.782580,-10288.862594,-3447.429741
22100.805939,-1776.494261,-9252.574275,-1608.800546
22100.806272,-4145.153275,-9548.656652,-4826.401637
22100.806605,-74.020594,-9474.636058,-76.609550
22100.806938,0.000000,-7624.121203,-995.924147
22100.807272,-2220.617826,-11029.068536,0.000000
22100.807605,2072.576638,-8808.450710,3217.601092
22100.807938,5625.565159,-10066.800811,5362.668486
22100.808271,4663.297435,-9474.636058,4519.963438
22100.808604,4145.153275,-8364.327145,2451.505594
22100.808937,2664.741391,-8882.471304,6052.154434
22100.809270,2886.803174,-5921.647536,0.000000
22100.809603,592.164754,-5995.668130,-4290.134789
22100.809936,-666.185348,-13027.624579,-4979.620737
22100.810269,-4071.132681,-12731.542202,-3447.429741
22100.810603,-3404.947333,-9474.636058,-2604.724693
22100.810936,-3404.947333,-11991.336260,-995.924147
22100.811269,-1924.535449,-7179.997637,-689.485948
22100.811602,-1184.329507,-8660.409521,4826.401637
22100.811935,3478.967927,-7105.977043,3600.648841
22100.812268,1480.411884,-5995.668130,4903.011187
22100.812601,3552.988522,-10066.800811,5286.058936
22100.812934,1702.473667,-8364.327145,612.876398
22100.813267,-2442.679609,-9474.636058,-1225.752797
22100.813601,1332.370696,-9252.574275,-3294.210641
22100.813934,1036.288319,-8660.409521,-995.924147
22100.814267,592.164754,-9548.656652,-4290.134789
22100.814600,-296.082377,-13027.624579,-76.609550
22100.814933,-4811.338623,-9992.780217,-4596.572988
22100.815266,-2220.617826,-8660.409521,-1838.629195
22100.815599,0.000000,-11843.295072,2068.457845
22100.815932,4737.318029,-9548.656652,6435.202183
22100.816265,1776.494261,-7624.121203,8044.002729
22100.816598,2072.576638,-6809.894666,2528.115143
22100.816932,962.267725,-9770.718434,4443.353888
22100.817265,-74.020594,-2812.782580,-76.609550
22100.817598,1406.391290,-11843.295072,-4979.620737
22100.817931,-6513.812290,-11917.315666,-1685.410096
22100.818264,-2146.597232,-11547.212695,-3753.867940
22100.818597,-3627.009116,-9474.636058,-4979.620737
22100.818930,-4145.153275,-10732.986159,-306.438199
22100.819263,-3923.091493,-7698.141797,-2374.896044
22100.819596,1332.370696,-8142.265362,4213.525239
22100.819929,2072.576638,-9918.759623,5745.716235
22100.820263,7624.121203,-6513.812290,8963.317327
22100.820596,4885.359217,-7179.997637,7048.078582
22100.820929,5255.462188,-7402.059420,4673.182538
22100.821262,2960.823768,-6143.709319,1532.190996
22100.821595,0.000000,-10732.986159,-2145.067394
22100.821928,-1776.494261,-9548.656652,-3064.381992
22100.822261,-962.267725,-11843.295072,-7431.126331
22100.822594,-3034.844362,-14211.954086,-7431.126331
22100.822927,-3552.988522,-9844.739029,0.000000
22100.823261,-1332.370696,-7105.977043,-1608.800546
22100.823594,1776.494261,-8512.368333,5132.839837
22100.823927,370.102971,-10066.800811,5898.935335
22100.824260,2368.659014,-4737.318029,3447.429741
22100.824593,0.000000,-8512.368333,6128.763984
22100.824926,5255.462188,-4959.379811,1838.629195
22100.825259,2590.720797,-11843.295072,2987.772442
22100.825592,2294.638420,-6587.832884,-1225.752797
22100.825925,-6513.812290,-10732.986159,-7048.078582
22100.826258,-1702.473667,-10140.821405,-7201.297681
22100.826592,-2368.659014,-14211.954086,-2911.162892
22100.826925,1776.494261,-5921.647536,-1762.019645
22100.827258,-370.102971,-12805.562797,1532.190996
22100.827591,-962.267725,-11695.253884,1762.019645
22100.827924,2368.659014,-7476.080014,6128.763984
22100.828257,2294.638420,-10658.965565,3600.648841
22100.828590,6513.812290,-7772.162391,4903.011187
22100.828923,1110.308913,-11843.295072,7277.907231
22100.829256,4663.297435,-5921.647536,842.705048
22100.829590,-2960.823768,-9992.780217,1149.143247
22100.829923,-3108.864956,-5847.626942,-2757.943793
22100.830256,-2960.823768,-6365.771101,-5822.325785
22100.830589,-4219.173869,-9992.780217,-3524.039291
22100.830922,-2146.597232,-12139.377449,-2068.457845
22100.831255,-7698.141797,-9844.739029,-3677.258390
22100.831588,-2368.659014,-9548.656652,0.000000
22100.831921,-1258.350101,-14211.954086,1149.143247
22100.832254,3108.864956,-5995.668130,3983.696590
22100.832587,3478.967927,-8882.471304,5132.839837
22100.832921,6365.771101,-5847.626942,6741.640382
22100.833254,4145.153275,-5995.668130,4519.963438
22100.833587,3997.112087,-7105.977043,4213.525239
22100.833920,1702.473667,-6513.812290,-2528.115143
22100.834253,-4737.318029,-11917.315666,-2145.067394
22100.834586,-814.226536,-10362.883188,-1455.581446
22100.834919,-1850.514855,-9474.636058,-4366.744339
22100.835252,-2072.576638,-7179.997637,-7048.078582
22100.835585,-2146.597232,-13471.748144,-689.485948
22100.835918,2738.761985,-9992.780217,3983.696590
22100.836251,2960.823768,-9326.594869,5132.839837
22100.836585,3701.029710,-11547.212695,6052.154434
22100.836918,1702.473667,-9474.636058,1608.800546
22100.837251,3997.112087,-6661.853478,4519.963438
22100.837584,2072.576638,-4885.359217,0.000000
22100.837917,3478.967927,-8882.471304,-76.609550
22100.838250,-1480.411884,-7476.080014,0.000000
22100.838583,1628.453072,-8290.306550,-4979.620737
22100.838916,-4737.318029,-9548.656652,-5822.325785
22100.839249,-4737.318029,-13693.809927,-1532.190996
22100.839582,1702.473667,-11251.130318,-995.924147
22100.839915,-1776.494261,-4811.338623,0.000000
22100.840248,4145.153275,-17616.901420,5975.544884
22100.840582,3404.947333,370.102971,3600.648841
22100.840915,1406.391290,-13101.645173,3064.381992
22100.841248,1702.473667,-23686.590144,2374.896044
22100.841581,4663.297435,-8290.306550,2528.115143
22100.841914,5329.482782,8216.285956,-2068.457845
22100.842247,-74.020594,-9474.636058,1762.019645
22100.842580,-9178.553681,-13101.645173,-3064.381992
22100.842913,-5403.503377,-12805.562797,-76.609550
22100.843246,-4441.235652,-10214.842000,-1762.019645
22100.843579,148.041188,-11325.150913,-2987.772442
22100.843912,-148.041188,-8586.388927,-2834.553343
22100.844246,1924.535449,-4811.338623,0.000000
22100.844579,3478.967927,-5625.565159,-2145.067394
22100.844912,7105.977043,-10658.965565,8503.660028
22100.845245,814.226536,-11843.295072,5975.544884
22100.845578,-2590.720797,-4811.338623,766.095498
22100.845911,-2146.597232,-3552.988522,-1915.238745
22100.846244,-4219.173869,-11103.089130,-689.485948
22100.846577,222.061783,-5107.421000,2757.943793
22100.846910,-518.144159,-4737.318029,2528.115143
22100.847243,-3552.988522,-12139.377449,0.000000
22100.847576,-1480.411884,-10732.986159,1225.752797
22100.847909,-1776.494261,-16506.592507,3600.648841
22100.848243,4367.215058,-10066.800811,1762.019645
22100.848576,0.000000,-14285.974681,-1838.629195
22100.848909,2960.823768,-10732.986159,1225.752797
22100.849242,5699.585753,-5773.606348,-689.485948
22100.849575,888.247130,-10436.903782,-919.314598
22100.849908,740.205942,-6735.874072,-4826.401637
22100.850241,-3627.009116,-11843.295072,-8044.002729
22100.850574,0.000000,-11917.315666,-2528.115143
22100.850907,814.226536,-9548.656652,-3677.258390
22100.851240,1332.370696,-5403.503377,0.000000
22100.851573,4441.235652,-7550.100608,2374.896044
22100.851907,4071.132681,-9104.533087,306.438199
22100.852240,6143.709319,-8734.430116,2911.162892
22100.852573,2294.638420,-11843.295072,2298.286494
22100.852906,3182.885551,-9400.615463,-306.438199
22100.853239,1702.473667,-10658.965565,-76.609550
22100.853572,1776.494261,-10066.800811,2374.896044
22100.853905,-592.164754,-6735.874072,-306.438199
22100.854238,-3775.050304,-5033.400406,-5822.325785
22100.854571,-2664.741391,-9252.574275,-3983.696590
22100.854904,-3627.009116,-11843.295072,1762.019645
22100.855237,0.000000,-4811.338623,1225.752797
22100.855571,-2442.679609,-14211.954086,4826.401637
22100.855904,1998.556043,-5403.503377,5515.887586
22100.856237,3552.988522,-4811.338623,6128.763984
22100.856570,6439.791695,-10066.800811,7277.907231
22100.856903,3923.091493,-8216.285956,2681.334243
22100.857236,-518.144159,-9844.739029,995.924147
22100.857569,1702.473667,-7698.141797,-1455.581446
22100.857902,-962.267725,-9696.697840,-2911.162892
22100.858235,-3552.988522,-8364.327145,-2834.553343
22100.858568,-4515.256246,-8882.471304,-4979.620737
22100.858901,-6365.771101,-8364.327145,-3064.381992
22100.859234,-148.041188,-9474.636058,2374.896044
22100.859568,-962.267725,-8364.327145,3677.258390
22100.859901,3330.926739,-6217.729913,5822.325785
22100.860234,592.164754,-11103.089130,6435.202183
22100.860567,1036.288319,-8660.409521,2604.724693
22100.860900,1184.329507,-9548.656652,1838.629195
22100.861233,3108.864956,-13619.789333,-76.609550
22100.861566,1110.308913,-12361.439231,-3294.210641
22100.861899,-2442.679609,-8660.409521,-7354.516781
22100.862232,-4441.235652,-10658.965565,-7431.126331
22100.862565,-4145.153275,-10732.986159,-3140.991542
22100.862898,-962.267725,-7846.182985,-2451.505594
22100.863232,-3330.926739,-9548.656652,-383.047749
22100.863565,-888.247130,-9400.615463,3600.648841
22100.863898,1702.473667,-10066.800811,7277.907231
22100.864231,6439.791695,-6513.812290,6665.030833
22100.864564,2368.659014,-5995.668130,6741.640382
22100.864897,5847.626942,-9178.553681,2374.896044
22100.865230,2886.803174,-7698.141797,-1762.019645
22100.865563,0.000000,-10732.986159,-1532.190996
22100.865896,-370.102971,-9474.636058,-7277.907231
22100.866229,-3182.885551,-10658.965565,-6435.202183
22100.866562,-3108.864956,-9918.759623,-5362.668486
22100.866895,-74.020594,-7994.224174,-1455.581446
22100.867229,-814.226536,-8734.430116,536.266849
22100.867562,1258.350101,-5699.585753,3600.648841
22100.867895,592.164754,-8956.491898,6741.640382
22100.868228,5033.400406,-4219.173869,7354.516781
22100.868561,3552.988522,-7476.080014,7354.516781
22100.868894,8216.285956,-12435.459826,6665.030833
22100.869227,4145.153275,-5995.668130,2987.772442
22100.869560,592.164754,-9548.656652,-919.314598
22100.869893,1332.370696,-9474.636058,-2298.286494
22100.870226,-3552.988522,-8660.409521,-5822.325785
22100.870559,-3552.988522,-10140.821405,-5515.887586
22100.870893,-4811.338623,-9178.553681,-3294.210641
22100.871226,-4737.318029,-9844.739029,-842.705048
22100.871559,-2590.720797,-6809.894666,-612.876398
22100.871892,3478.967927,-9474.636058,2987.772442
22100.872225,3182.885551,-7179.997637,6435.202183
22100.872558,1776.494261,-10732.986159,7277.907231
22100.872891,2368.659014,-8512.368333,612.876398
22100.873224,592.164754,-14137.933492,1378.971896
22100.873557,2294.638420,-9770.718434,612.876398
22100.873890,1406.391290,-9474.636058,153.219100
22100.874223,-3627.009116,-9474.636058,-5592.497135
22100.874557,-1776.494261,-5403.503377,-4290.134789
22100.874890,-5995.668130,-7105.977043,-6052.154434
22100.875223,0.000000,-4219.173869,0.000000
22100.875556,-3034.844362,-12435.459826,2145.067394
22100.875889,1702.473667,-11251.130318,3600.648841
22100.876222,1628.453072,-8586.388927,2681.334243
22100.876555,-1036.288319,-12509.480420,1532.190996
22100.876888,2072.576638,-10140.821405,919.314598
22100.877221,74.020594,-13693.809927,4596.572988
22100.877554,7031.956449,-8734.430116,7277.907231
22100.877887,296.082377,-5995.668130,2451.505594
22100.878220,-2368.659014,-8364.327145,2068.457845
22100.878554,-1258.350101,-4441.235652,-3907.087040
22100.878887,-4663.297435,-5403.503377,-3677.258390
22100.879220,518.144159,-7105.977043,-2681.334243
22100.879553,-1850.514855,-11695.253884,-76.609550
22100.879886,-296.082377,-10732.986159,0.000000
22100.880219,-814.226536,-10140.821405,-459.657299
22100.880552,1702.473667,-12435.459826,-76.609550
22100.880885,1332.370696,-9548.656652,5362.668486
22100.881218,3256.906145,-10066.800811,6052.154434
22100.881551,4663.297435,-8882.471304,1455.581446
22100.881884,592.164754,-5403.503377,1991.848295
22100.882218,2590.720797,-6513.812290,995.924147
22100.882551,1332.370696,-5773.606348,-306.438199
22100.882884,0.000000,-8882.471304,-5286.058936
22100.883217,888.247130,-11991.336260,-3447.429741
22100.883550,-1258.350101,-12435.459826,-1302.362347
22100.883883,1776.494261,-10066.800811,-2451.505594
22100.884216,222.061783,-13989.892304,3600.648841
22100.884549,1036.288319,-8068.244768,2374.896044
22100.884882,0.000000,-7179.997637,4903.011187
22100.885215,2294.638420,-7105.977043,842.705048
22100.885548,1184.329507,-7179.997637,0.000000
22100.885881,0.000000,-8660.409521,5209.449386
22100.886215,2738.761985,-8290.306550,536.266849
22100.886548,-2886.803174,-7179.997637,-2145.067394
22100.886881,-2738.761985,-8586.388927,-4749.792088
22100.887214,-2294.638420,-8808.450710,-3064.381992
22100.887547,-2886.803174,-11843.295072,-2834.553343
22100.887880,3182.885551,-10066.800811,-76.609550
22100.888213,2294.638420,-11547.212695,2374.896044
22100.888546,2368.659014,-5995.668130,5515.887586
22100.888879,0.000000,-9696.697840,5439.278036
22100.889212,4663.297435,-8586.388927,5439.278036
22100.889545,2664.741391,-5995.668130,7048.078582
22100.889879,518.144159,-7105.977043,-2374.896044
22100.890212,-2146.597232,-12731.542202,-3140.991542
22100.890545,-5773.606348,-9474.636058,-8350.440928
22100.890878,-3775.050304,-10066.800811,-6205.373534
22100.891211,-1850.514855,-10955.047942,-6205.373534
22100.891544,0.000000,-10140.821405,2681.334243
22100.891877,1110.308913,-5625.565159,995.924147
22100.892210,3182.885551,-7772.162391,3677.258390
22100.892543,5847.626942,-7105.977043,6665.030833
22100.892876,3701.029710,-8512.368333,5975.544884
22100.893209,4737.318029,-8364.327145,4443.353888
22100.893543,-296.082377,-11547.212695,153.219100
22100.893876,0.000000,-9252.574275,-1532.190996
22100.894209,-4367.215058,-9548.656652,-4903.011187
22100.894542,-2960.823768,-9252.574275,-3830.477490
22100.894875,-1850.514855,-10955.047942,-3753.867940
22100.895208,-4145.153275,-7550.100608,-3907.087040
22100.895541,-2368.659014,-9548.656652,0.000000
22100.895874,-370.102971,-7105.977043,0.000000
22100.896207,4663.297435,-8586.388927,3217.601092
22100.896540,3182.885551,-12139.377449,7584.345430
22100.896873,9400.615463,-7105.977043,6052.154434
22100.897206,0.000000,-11917.315666,5362.668486
22100.897540,4663.297435,-7402.059420,919.314598
22100.897873,-2812.782580,-5107.421000,0.000000
22100.898206,-962.267725,-10362.883188,-1915.238745
22100.898539,-3775.050304,-7550.100608,-6435.202183
22100.898872,-6439.791695,-10955.047942,-2987.772442
22100.899205,-1702.473667,-6735.874072,-2604.724693
22100.899538,-5181.441594,-13545.768739,-1302.362347
22100.899871,-2738.761985,-9474.636058,2374.896044
22100.900204,1776.494261,-5477.523971,2987.772442
22100.900537,5551.544565,-10732.986159,7431.126331
22100.900870,7476.080014,-3108.864956,3447.429741
22100.901204,3849.070898,-12583.501014,3140.991542
22100.901537,3478.967927,-11547.212695,1149.143247
22100.901870,592.164754,-11917.315666,0.000000
22100.902203,1628.453072,-13619.789333,-1915.238745
22100.902536,0.000000,-7179.997637,-2451.505594
22100.902869,-5921.647536,-9548.656652,-3677.258390
22100.903202,-74.020594,-5921.647536,-2834.553343
22100.903535,-2516.700203,-9770.718434,-76.609550
22100.903868,1776.494261,-6661.853478,1762.019645
22100.904201,592.164754,-8438.347739,5592.497135
22100.904534,1702.473667,-9178.553681,1149.143247
22100.904867,0.000000,-9844.739029,2987.772442
22100.905201,1998.556043,-13027.624579,3600.648841
22100.905534,4367.215058,-7772.162391,-1225.752797
22100.905867,592.164754,-11325.150913,2451.505594
22100.906200,2294.638420,-8734.430116,-2757.943793
22100.906533,-1850.514855,-6809.894666,-3753.867940
22100.906866,-2442.679609,-9474.636058,-2834.553343
22100.907199,-148.041188,-6513.812290,-2528.115143
22100.907532,-2368.659014,-9548.656652,0.000000
22100.907865,1184.329507,-11473.192101,3600.648841
22100.908198,-2146.597232,-12805.562797,842.705048
22100.908531,666.185348,-5107.421000,2451.505594
22100.908865,2738.761985,-13027.624579,3600.648841
22100.909198,5921.647536,-7179.997637,3064.381992
22100.909531,4071.132681,-8512.368333,6511.811733
22100.909864,1702.473667,-6661.853478,-76.609550
22100.910197,1406.391290,-9326.594869,-612.876398
22100.910530,-3256.906145,-10140.821405,-2451.505594
22100.910863,2886.803174,-9474.636058,-2528.115143
22100.911196,-6291.750507,-7179.997637,-2145.067394
22100.911529,-1554.432478,-9474.636058,-2528.115143
22100.911862,-2664.741391,-11843.295072,-1302.362347
22100.912195,0.000000,-10140.821405,1532.190996
22100.912529,2812.782580,-10362.883188,4213.525239
22100.912862,1184.329507,-9992.780217,4673.182538
22100.913195,4293.194464,-9252.574275,3983.696590
22100.913528,1480.411884,-11547.212695,4903.011187
22100.913861,4071.132681,-7105.977043,3447.429741
22100.914194,1406.391290,-6439.791695,229.828649
22100.914527,444.123565,-6587.832884,-1149.143247
22100.914860,-2146.597232,-6513.812290,-4519.963438
22100.915193,-3627.009116,-5995.668130,-4903.011187
22100.915526,-3849.070898,-11843.295072,-1302.362347
22100.915859,-666.185348,-14211.954086,-2528.115143
22100.916192,-1258.350101,-11177.109724,0.000000
22100.916526,-666.185348,-11843.295072,1608.800546
22100.916859,1850.514855,-8438.347739,5209.449386
22100.917192,222.061783,-8438.347739,5515.887586
22100.917525,3997.112087,-5847.626942,1532.190996
22100.917858,592.164754,-9548.656652,3677.258390
22100.918191,2886.803174,-5329.482782,0.000000
22100.918524,2886.803174,-8290.306550,-689.485948
22100.918857,-1332.370696,-10732.986159,-1838.629195
22100.919190,-592.164754,-5995.668130,-2451.505594
22100.919523,-4737.318029,-7328.038826,-5515.887586
22100.919856,-1036.288319,-10288.862594,-766.095498
22100.920190,-148.041188,-9770.718434,-1378.971896
22100.920523,74.020594,-13471.748144,2451.505594
22100.920856,2294.638420,-13027.624579,4213.525239
22100.921189,-2368.659014,-9548.656652,612.876398
22100.921522,4663.297435,-9474.636058,4826.401637
22100.921855,2664.741391,-5995.668130,6128.763984
22100.922188,5255.462188,-7105.977043,4213.525239
22100.922521,3478.967927,-6809.894666,-76.609550
22100.922854,-2960.823768,-9104.533087,-4366.744339
22100.923187,-592.164754,-8512.368333,-3677.258390
22100.923520,-1998.556043,-11029.068536,-4596.572988
22100.923853,-1628.453072,-11843.295072,-2528.115143
22100.924187,-2960.823768,-12509.480420,1991.848295
22100.924520,-370.102971,-8956.491898,919.314598
22100.924853,0.000000,-5995.668130,4903.011187
22100.925186,4663.297435,-12879.583391,4213.525239
22100.925519,8660.409521,-5625.565159,5822.325785
22100.925852,740.205942,-11843.295072,3907.087040
22100.926185,4367.215058,-7476.080014,766.095498
22100.926518,-2516.700203,-7994.224174,-1455.581446
22100.926851,222.061783,-6513.812290,-5132.839837
22100.927184,1110.308913,-9474.636058,-1915.238745
22100.927517,-7105.977043,-9548.656652,-3370.820191
22100.927851,-370.102971,-7994.224174,-2834.553343
22100.928184,-1258.350101,-11843.295072,-1608.800546
22100.928517,2738.761985,-8216.285956,1532.190996
22100.928850,3182.885551,-9474.636058,4826.401637
22100.929183,2072.576638,-10288.862594,4366.744339
22100.929516,1406.391290,-8882.471304,2451.505594
22100.929849,-518.144159,-10955.047942,3600.648841
22100.930182,5255.462188,-3552.988522,842.705048
22100.930515,-1776.494261,-10066.800811,-995.924147
22100.930848,814.226536,-7105.977043,-2528.115143
22100.931181,-3552.988522,-8734.430116,-4519.963438
22100.931515,-2368.659014,-8364.327145,-3677.258390
22100.931848,-1258.350101,-11251.130318,-689.485948
22100.932181,-962.267725,-8882.471304,-2528.115143
22100.932514,2516.700203,-7772.162391,2451.505594
22100.932847,2960.823768,-12879.583391,5439.278036
22100.933180,6439.791695,-7994.224174,5669.106685
22100.933513,2294.638420,-9400.615463,4979.620737
22100.933846,2294.638420,-10362.883188,2757.943793
22100.934179,-3330.926739,-7624.121203,-1838.629195
22100.934512,-2220.617826,-11769.274478,-2528.115143
22100.934845,-1924.535449,-11251.130318,-1302.362347
22100.935178,-5329.482782,-4811.338623,-3677.258390
22100.935512,-5625.565159,-4811.338623,-3677.258390
22100.935845,-3034.844362,-8290.306550,-76.609550
22100.936178,-1776.494261,-5995.668130,-1225.752797
22100.936511,1110.308913,-10066.800811,2374.896044
22100.936844,3552.988522,-11769.274478,4443.353888
22100.937177,1776.494261,-12509.480420,4213.525239
22100.937510,2294.638420,-10955.047942,5439.278036
22100.937843,4071.132681,-9474.636058,-76.609550
22100.938176,3627.009116,-9474.636058,-76.609550
22100.938509,-1480.411884,-13101.645173,0.000000
22100.938842,2294.638420,-11251.130318,-383.047749
22100.939175,-4589.276840,-9474.636058,-3140.991542
22100.939508,-3552.988522,-5403.503377,-612.876398
22100.939841,-1554.432478,-6217.729913,-2528.115143
22100.940174,444.123565,-7105.977043,1225.752797
22100.940507,1184.329507,-8956.491898,2451.505594
22100.940840,0.000000,-8956.491898,1838.629195
22100.941173,3478.967927,-14211.954086,4213.525239
22100.941506,2294.638420,-9474.636058,689.485948
22100.941839,1480.411884,-9548.656652,0.000000
22100.942172,1184.329507,-8364.327145,1225.752797
22100.942505,1332.370696,-8586.388927,-2911.162892
22100.942838,-2146.597232,-10214.842000,-3907.087040
22100.943171,-2516.700203,-10214.842000,-1302.362347
22100.943504,1110.308913,-6809.894666,-689.485948
22100.943837,0.000000,-6291.750507,4826.401637
22100.944170,2886.803174,-3552.988522,0.000000
22100.944503,0.000000,-7179.997637,2451.505594
22100.944837,4663.297435,-8290.306550,995.924147
22100.945170,2368.659014,-13693.809927,0.000000
22100.945503,4367.215058,-13027.624579,2374.896044
22100.945836,2368.659014,-14211.954086,2068.457845
